Time (s),Acceleration x (m/s^2),Acceleration y (m/s^2),Acceleration z (m/s^2)
-0.000157417,-0.751736755,0.020207977,9.853559418
0.009815583,-0.743653564,0.021704865,9.64504303
0.019787583,-0.720302124,0.023950195,9.830357666
0.029760583,-0.768202515,0.020657043,9.709558868
0.039733583,-0.751287689,0.024249573,9.760303345
0.049705583,-0.750090179,0.022453308,9.778565369
0.059678583,-0.753982086,0.025896149,9.730664978
0.069651583,-0.73242691,0.023052063,9.805509338
0.079623583,-0.755478973,0.019758911,9.733359375
0.089596583,-0.747545471,0.019309845,9.773026886
0.099569583,-0.757125549,0.027093658,9.768236847
0.109541583,-0.747395782,0.021704865,9.756561127
0.119514583,-0.746647339,0.024698639,9.74443634
0.129487583,-0.760867767,0.020657043,9.729018402
0.139459583,-0.75353302,0.022303619,9.764943695
0.149432583,-0.768352203,0.020207977,9.744286652
0.159404583,-0.774190063,0.020207977,9.734257507
0.169377583,-0.763711853,0.02574646,9.741891632
0.179350583,-0.747545471,0.010777588,9.754615173
0.189322583,-0.734971619,0.010627899,9.74683136
0.199295583,-0.74305481,0.022453308,9.754465485
0.209268583,-0.754431152,0.024998016,9.756860504
0.219240583,-0.752036133,0.027093658,9.752818909
0.229213583,-0.756377106,0.026794281,9.763746185
0.239186583,-0.73018158,0.020956421,9.750573578
0.249158583,-0.717158661,0.024399261,9.764195251
0.259131583,-0.742006989,0.025596771,9.765093384
0.269103583,-0.780327301,0.027542725,9.764644318
0.279076583,-0.774190063,0.022303619,9.762698364
0.289049583,-0.779878235,0.024249573,9.757159882
0.299021583,-0.751437378,0.027393036,9.758058014
0.308994583,-0.743204498,0.025297394,9.74563385
0.318967583,-0.741408234,0.024399261,9.75506424
0.328939583,-0.756526794,0.028291168,9.73515564
0.338912583,-0.775686951,0.020507355,9.730664978
0.348885583,-0.78047699,0.019459534,9.731413422
0.358857583,-0.771196289,0.024099884,9.736802216
0.368830583,-0.774938507,0.020657043,9.746232605
0.378803583,-0.745000763,0.016914825,9.745334473
0.388775583,-0.749491425,0.015867004,9.751621399
0.398748583,-0.764310608,0.016914825,9.741143188
0.408720583,-0.757424927,0.021854553,9.748477936
0.418693583,-0.743803253,0.027243347,9.780211945
0.428666583,-0.728085938,0.02110611,9.741741943
0.438638583,-0.749790802,0.010029144,9.75266922
0.448611583,-0.759221191,0.000598755,9.773176575
0.458584583,-0.777932281,0.029488678,9.746981049
0.468556583,-0.764759674,0.012424164,9.760453033
0.478529583,-0.7617659,0.018411713,9.803264008
0.488502583,-0.760718079,0.039966888,9.634415131
0.498474583,-0.725690918,-0.012124786,9.884245605
0.508447583,-0.767903137,0.023650818,9.716145172
0.518419583,-0.793499908,0.018860779,9.663604431
0.528392583,-0.770298157,0.001646576,9.795180817
0.538365583,-0.763562164,0.015867004,9.764195251
0.548337583,-0.7710466,0.02110611,9.699230347
0.558310583,-0.739911346,0.01871109,9.759105835
0.568283583,-0.749491425,0.025147705,9.773925018
0.578255583,-0.770148468,0.020657043,9.719588013
0.588228583,-0.742456055,0.027093658,9.748477936
0.598200583,-0.742905121,0.025297394,9.766141205
0.608173583,-0.744851074,0.026345215,9.730814667
0.618146583,-0.731828156,0.021854553,9.767039337
0.628118583,-0.748742981,0.027243347,9.769134979
0.638091583,-0.768052826,0.027991791,9.731413422
0.648064583,-0.773890686,0.014519806,9.757608948
0.658036583,-0.759819946,0.015867004,9.775421906
0.668009583,-0.752934265,0.01287323,9.735604706
0.677983125,-0.751287689,0.017214203,9.748777313
0.687955125,-0.770298157,0.012124786,9.749525757
0.697928125,-0.762664032,0.023201752,9.73156311
0.707900125,-0.774040375,0.020956421,9.747879181
0.717873125,-0.774339752,0.012723541,9.746981049
0.727846125,-0.752934265,0.012573853,9.714947662
0.737818125,-0.74649765,0.008981323,9.748178558
0.747791125,-0.750090179,0.020806732,9.741891632
0.757764125,-0.756676483,0.019758911,9.733509064
0.767736125,-0.769998779,0.019160156,9.752220154
0.777709125,-0.749491425,0.020956421,9.76554245
0.787681125,-0.77688446,0.028590546,9.763895874
0.797654125,-0.750239868,0.025297394,9.774074707
0.807627125,-0.74889267,0.014519806,9.755363617
0.817599125,-0.756975861,0.02454895,9.764494629
0.827572125,-0.780177612,0.027093658,9.769284668
0.837545125,-0.775836639,0.02694397,9.767787781
0.847517125,-0.763861542,0.025896149,9.757459259
0.857490125,-0.750239868,0.017064514,9.744136963
0.867463125,-0.758622437,0.017812958,9.734706573
0.877435125,-0.755179596,0.011526031,9.741891632
0.887408125,-0.749042358,0.017064514,9.76434494
0.897380125,-0.803678741,0.014819183,9.751322021
0.907353125,-0.81670166,0.013621674,9.731114044
0.917326125,-0.764460297,0.020657043,9.740694122
0.927298125,-0.705333252,0.011376343,9.751621399
0.937271125,-0.718505859,0.017214203,9.775571594
0.947243125,-0.782872009,0.020657043,9.786199493
0.957216125,-0.79918808,0.027243347,9.757010193
0.967189125,-0.781075745,0.028141479,9.747879181
0.977161125,-0.734223175,0.021704865,9.761800232
0.987134125,-0.692010956,0.022752686,9.766590271
0.997107125,-0.741707611,0.009580078,9.780810699
1.007079125,-0.771795044,0.02694397,9.766889648
1.017052125,-0.805924072,0.024698639,9.767787781
1.027025125,-0.800535278,0.022602997,9.746531982
1.036997125,-0.74649765,0.015118561,9.746681671
1.046970125,-0.711021423,0.014220428,9.755812683
1.056942125,-0.737216949,0.028141479,9.746382294
1.066915125,-0.753383331,0.023052063,9.732610931
1.076888125,-0.781075745,0.02574646,9.751771088
1.086860125,-0.787961426,0.024249573,9.731862488
1.096833125,-0.749790802,0.028141479,9.757758636
1.106805125,-0.725092163,0.021854553,9.749675446
1.116778125,-0.739911346,0.02694397,9.761800232
1.126751125,-0.772094421,0.022602997,9.760453033
1.136723125,-0.773740997,0.025447083,9.751022644
1.146696125,-0.757275238,0.020357666,9.756411438
1.156669125,-0.751138,0.02335144,9.755812683
1.166641125,-0.724343719,0.019309845,9.741442566
1.176614125,-0.731977844,0.011526031,9.754315796
1.186586125,-0.753383331,0.019309845,9.744286652
1.196559125,-0.807720337,0.022303619,9.732161865
1.206532125,-0.799337769,0.019758911,9.730515289
1.216504125,-0.750838623,0.025147705,9.744885406
1.226477125,-0.723445587,0.01407074,9.760003967
1.236450125,-0.737666016,0.027393036,9.766141205
1.246422125,-0.77927948,0.008382568,9.746082916
1.256395125,-0.801732788,0.013771362,9.74563385
1.266367125,-0.764160919,0.019609222,9.762099609
1.276340125,-0.739162903,0.017962646,9.756261749
1.286313125,-0.745599518,0.006885681,9.746681671
1.296285125,-0.750389557,0.011975098,9.756561127
1.306258125,-0.745449829,0.024998016,9.741292877
1.316231125,-0.752485199,0.023950195,9.754465485
1.326203125,-0.762364655,0.021704865,9.757010193
1.336176125,-0.747545471,0.014519806,9.742789764
1.346148125,-0.734971619,0.013022919,9.746531982
1.356121125,-0.741408234,0.028291168,9.741741943
1.366094125,-0.764759674,0.026045837,9.746681671
1.376066125,-0.768501892,0.024099884,9.748777313
1.386039125,-0.769998779,0.010777588,9.76554245
1.396011125,-0.734672241,0.016016693,9.743987274
1.405984125,-0.745898895,0.019309845,9.765692139
1.415957125,-0.746647339,0.013921051,9.749525757
1.425929125,-0.77927948,0.027692413,9.75850708
1.435902125,-0.757574615,0.020657043,9.752519531
1.445875125,-0.736917572,0.017064514,9.746681671
1.455847125,-0.759819946,0.026644592,9.751322021
1.465820125,-0.770447845,0.028440857,9.750124512
1.475792125,-0.755179596,0.017064514,9.748777313
1.485765125,-0.758921814,0.026644592,9.748627625
1.495738125,-0.756377106,0.020058289,9.761500854
1.505710125,-0.757724304,0.022453308,9.75266922
1.515683125,-0.755029907,0.023201752,9.761051788
1.525656125,-0.737216949,0.027991791,9.744885406
1.535628125,-0.746198273,0.022453308,9.740694122
1.545601125,-0.765807495,0.023950195,9.749376068
1.555573125,-0.758921814,0.027093658,9.745035095
1.565546125,-0.762364655,0.025896149,9.749525757
1.575519125,-0.747545471,0.024698639,9.766590271
1.585491125,-0.76760376,0.025596771,9.767039337
1.595464125,-0.755778351,0.026045837,9.756860504
1.605436125,-0.757275238,0.022902374,9.742640076
1.615409125,-0.74649765,0.013921051,9.74802887
1.625382125,-0.754281464,0.025297394,9.752818909
1.635354125,-0.753233643,0.025447083,9.750423889
1.645327125,-0.749790802,0.009729767,9.754764862
1.655299125,-0.755029907,0.021704865,9.755812683
1.665272125,-0.751287689,0.02454895,9.745484161
1.675245125,-0.754281464,0.015867004,9.749675446
1.685216625,-0.769549713,0.019160156,9.758207703
1.695189625,-0.754281464,0.014669495,9.756860504
1.705162625,-0.73482193,0.037272491,9.760003967
1.715134625,-0.758323059,0.019160156,9.753717041
1.725107625,-0.770896912,0.018561401,9.748627625
1.735079625,-0.749790802,0.026794281,9.750573578
1.745052625,-0.743503876,0.023650818,9.754315796
1.755025625,-0.769549713,0.021854553,9.772128754
1.764997625,-0.756826172,0.009729767,9.75730957
1.774970625,-0.765657806,0.013621674,9.730664978
1.784942625,-0.762963409,0.01167572,9.747130737
1.794915625,-0.748443604,0.022602997,9.752519531
1.804888625,-0.750239868,0.028440857,9.75850708
1.814860625,-0.770597534,0.021854553,9.752519531
1.824833625,-0.766555939,0.012424164,9.767638092
1.834805625,-0.761616211,0.020507355,9.751771088
1.844778625,-0.75353302,0.02110611,9.75147171
1.854751625,-0.750838623,0.022004242,9.750872955
1.864723625,-0.743204498,0.022902374,9.75147171
1.874696625,-0.760269012,0.022303619,9.758207703
1.884668625,-0.766705627,0.025147705,9.75386673
1.894641625,-0.759819946,0.028291168,9.752818909
1.904614625,-0.76401123,0.01407074,9.751621399
1.914586625,-0.770747223,0.021255798,9.740544434
1.924559625,-0.737965393,0.013621674,9.756561127
1.934532625,-0.752036133,0.026794281,9.765991516
1.944504625,-0.74530014,0.019309845,9.751322021
1.954477625,-0.755179596,0.021255798,9.749825134
1.964449625,-0.744102631,0.020507355,9.753567352
1.974422625,-0.764909363,0.01751358,9.756112061
1.984395625,-0.779129791,0.027243347,9.74802887
1.994367625,-0.750988312,0.028291168,9.755812683
2.004340625,-0.725241852,0.014669495,9.750872955
2.014312625,-0.750988312,0.022752686,9.7502742
2.024285625,-0.788560181,0.019609222,9.750423889
2.034258625,-0.773291931,0.019459534,9.754315796
2.044230625,-0.724044342,0.023501129,9.759854279
2.054203625,-0.729433136,0.024249573,9.761650543
2.064175625,-0.751287689,0.022303619,9.758656769
2.074148625,-0.762364655,0.022303619,9.764195251
2.084121625,-0.761915588,0.024998016,9.749376068
2.094093625,-0.755029907,0.016016693,9.743089142
2.104066625,-0.758921814,0.014370117,9.7502742
2.114038625,-0.778680725,0.021405487,9.746082916
2.124011625,-0.761017456,0.020657043,9.760453033
2.133984625,-0.755628662,0.017214203,9.761051788
2.143956625,-0.747395782,0.020806732,9.757010193
2.153929625,-0.76640625,0.004939728,9.740245056
2.163901625,-0.770447845,0.020657043,9.746382294
2.173874625,-0.747545471,0.024698639,9.745334473
2.183847625,-0.733923798,0.022303619,9.75386673
2.193819625,-0.743503876,0.028440857,9.761800232
2.203792625,-0.757125549,0.020956421,9.743238831
2.213764625,-0.746647339,0.027991791,9.737101593
2.223737625,-0.763562164,0.021405487,9.755812683
2.233710625,-0.76056839,0.004191284,9.743837585
2.243682625,-0.750090179,0.026045837,9.736802216
2.253655625,-0.761017456,0.025147705,9.750573578
2.263627625,-0.740061035,0.01407074,9.750573578
2.273600625,-0.770148468,0.010029144,9.754764862
2.283573625,-0.771196289,0.02574646,9.754465485
2.293545625,-0.743952942,0.02335144,9.753567352
2.303518625,-0.769699402,0.024399261,9.75266922
2.313490625,-0.748293915,0.020207977,9.761051788
2.323463625,-0.749192047,0.014519806,9.745933228
2.333436625,-0.753233643,0.020956421,9.774074707
2.343408625,-0.743653564,0.023052063,9.749376068
2.353381625,-0.744551697,0.014669495,9.752818909
2.363353625,-0.754580841,0.026195526,9.749376068
2.373326625,-0.749641113,0.011076965,9.740694122
2.383299625,-0.743204498,0.022453308,9.742490387
2.393271625,-0.756826172,0.008382568,9.74683136
2.403244625,-0.770447845,0.01287323,9.74802887
2.413216625,-0.75353302,0.009879456,9.756561127
2.423189625,-0.76760376,0.01167572,9.759105835
2.433162625,-0.781075745,0.027393036,9.757159882
2.443134625,-0.765059052,0.019459534,9.745783539
2.453107625,-0.7710466,0.023201752,9.756411438
2.463079625,-0.767154694,0.027842102,9.747130737
2.473052625,-0.740360413,0.027393036,9.761650543
2.483025625,-0.760867767,0.010178833,9.756112061
2.492997625,-0.758921814,0.020956421,9.755962372
2.502970625,-0.760418701,0.025896149,9.752220154
2.512942625,-0.756975861,0.028141479,9.754764862
2.522915625,-0.750389557,0.023201752,9.745184784
2.532888625,-0.754131775,0.022453308,9.748927002
2.542860625,-0.766256561,0.01526825,9.750124512
2.552833625,-0.760418701,0.01047821,9.748777313
2.562805625,-0.758472748,0.01167572,9.744286652
2.572778625,-0.759969635,0.022004242,9.744136963
2.582751625,-0.772393799,0.020806732,9.75386673
2.592723625,-0.736618195,0.019459534,9.755213928
2.602696625,-0.757574615,0.022902374,9.739346924
2.612668625,-0.747994537,0.027093658,9.740394745
2.622641625,-0.760418701,0.021405487,9.757159882
2.632614625,-0.74889267,0.011076965,9.748777313
2.642586625,-0.771795044,0.020657043,9.742789764
2.652559625,-0.744851074,0.025297394,9.75386673
2.662531625,-0.766855316,0.016914825,9.744136963
2.672504625,-0.801134033,0.025147705,9.753567352
2.682476458,-0.76401123,0.027393036,9.742640076
2.692449458,-0.751886444,0.028440857,9.747280426
2.702422458,-0.732875977,0.003592529,9.75386673
2.712394458,-0.736169128,0.027093658,9.741292877
2.722367458,-0.783171387,0.022602997,9.737251282
2.732339458,-0.77808197,0.011076965,9.766889648
2.742312458,-0.736318817,0.022752686,9.756561127
2.752285458,-0.755179596,0.011825409,9.739496613
2.762257458,-0.761466522,0.022303619,9.742640076
2.772230458,-0.778531036,0.02335144,9.762099609
2.782202458,-0.778980103,0.026045837,9.74802887
2.792175458,-0.744851074,0.016316071,9.754914551
2.802148458,-0.759221191,0.019758911,9.743837585
2.812120458,-0.771196289,0.022303619,9.753267975
2.822093458,-0.767154694,0.027093658,9.744136963
2.832065458,-0.752036133,0.026794281,9.750573578
2.842038458,-0.742156677,0.013921051,9.739945679
2.852011458,-0.760269012,0.016465759,9.750723267
2.861983458,-0.772842865,0.027243347,9.74683136
2.871956458,-0.762813721,0.0199086,9.754465485
2.881928458,-0.736468506,0.027991791,9.756860504
2.891901458,-0.733923798,0.007634125,9.747280426
2.901873458,-0.748593292,0.026195526,9.746082916
2.911846458,-0.74305481,0.0199086,9.75266922
2.921819458,-0.739911346,0.023650818,9.754914551
2.931791458,-0.743354187,0.016166382,9.746681671
2.941764458,-0.772693176,0.021704865,9.755513306
2.951736458,-0.789308624,0.027542725,9.753567352
2.961709458,-0.764310608,0.027093658,9.742041321
2.971682458,-0.734971619,0.022303619,9.758956146
2.981654458,-0.768501892,0.015417938,9.742939453
2.991627458,-0.74530014,0.026494904,9.756112061
3.001599458,-0.754431152,0.023800507,9.743987274
3.011572458,-0.774938507,0.020357666,9.750723267
3.021545458,-0.756526794,0.020806732,9.744735718
3.031517458,-0.74305481,0.013621674,9.732161865
3.041490458,-0.749491425,0.023501129,9.741592255
3.051462458,-0.743503876,0.027393036,9.775870972
3.061435458,-0.761017456,0.022453308,9.753417664
3.071408458,-0.761167145,0.0199086,9.746082916
3.081380458,-0.758472748,0.027393036,9.742939453
3.091353458,-0.763711853,0.020956421,9.752220154
3.101325458,-0.735420685,0.02110611,9.758357391
3.111298458,-0.753383331,0.024848328,9.760453033
3.121270458,-0.746797028,0.022453308,9.731263733
3.131243458,-0.734971619,0.022004242,9.742789764
3.141216458,-0.764909363,0.025596771,9.747430115
3.151188458,-0.780177612,0.025596771,9.742939453
3.161161458,-0.755628662,0.021854553,9.739945679
3.171133458,-0.746048584,0.018112335,9.748477936
3.181106458,-0.744402008,0.023052063,9.755213928
3.191079458,-0.75353302,0.013022919,9.76434494
3.201051458,-0.777483215,0.024249573,9.759854279
3.211024458,-0.742905121,0.018561401,9.760303345
3.220996458,-0.743653564,0.016166382,9.75147171
3.230969458,-0.738414459,0.021555176,9.762698364
3.240941458,-0.751138,0.012723541,9.747579803
3.250914458,-0.753083954,0.025896149,9.745484161
3.260887458,-0.770148468,0.02110611,9.746981049
3.270859458,-0.767304382,0.026195526,9.759554901
3.280832458,-0.751437378,0.023052063,9.743687897
3.290804458,-0.760867767,0.02694397,9.722432098
3.300777458,-0.749790802,0.022602997,9.748477936
3.310750458,-0.743952942,0.022303619,9.752968597
3.320722458,-0.75592804,0.022752686,9.742939453
3.330695458,-0.760119324,0.02110611,9.74219101
3.340667458,-0.770896912,0.023800507,9.757758636
3.350640458,-0.75233551,0.027991791,9.753267975
3.360612458,-0.747246094,0.024249573,9.75730957
3.370585458,-0.761466522,0.017962646,9.75730957
3.380558458,-0.769549713,0.010627899,9.761800232
3.390530458,-0.763861542,0.019609222,9.73979599
3.400503458,-0.755478973,0.025297394,9.751322021
3.410475458,-0.738115082,0.023052063,9.745334473
3.420448458,-0.766705627,0.027542725,9.743687897
3.430421458,-0.743204498,0.012424164,9.758207703
3.440393458,-0.755329285,0.014519806,9.748927002
3.450366458,-0.787961426,0.020058289,9.747579803
3.460338458,-0.769699402,0.017363892,9.745334473
3.470311458,-0.750688934,0.023052063,9.74802887
3.480283458,-0.754580841,0.02335144,9.730515289
3.490256458,-0.749341736,0.023650818,9.750423889
3.500229458,-0.758323059,0.024249573,9.75730957
3.510201458,-0.786165161,0.009879456,9.756261749
3.520174458,-0.766256561,0.026195526,9.762398987
3.530146458,-0.757873993,0.025447083,9.765392761
3.540119458,-0.733923798,0.02454895,9.773625641
3.550092458,-0.714314575,0.022004242,9.761500854
3.560064458,-0.745599518,0.009879456,9.756411438
3.570037458,-0.767454071,0.011076965,9.733059998
3.580009458,-0.782722321,0.025896149,9.742490387
3.589982458,-0.776435394,0.02335144,9.75266922
3.599954458,-0.735570374,0.026794281,9.751322021
3.609927458,-0.720152435,0.022902374,9.739945679
3.619900458,-0.740210724,0.016316071,9.747729492
3.629872458,-0.751138,0.026195526,9.753118286
3.639845458,-0.793499908,0.022902374,9.741292877
3.649817458,-0.784817963,0.024698639,9.75386673
3.659790458,-0.770747223,0.01871109,9.746082916
3.669763458,-0.728085938,0.024698639,9.752519531
3.679735833,-0.720302124,0.018561401,9.762099609
3.689708833,-0.738115082,0.007185059,9.752070465
3.699680833,-0.779429169,0.026644592,9.742041321
3.709653833,-0.772992554,0.012274475,9.755213928
3.719625833,-0.763412476,0.010777588,9.756261749
3.729598833,-0.747395782,0.023201752,9.754764862
3.739571833,-0.747545471,0.017812958,9.756411438
3.749543833,-0.7418573,0.024698639,9.751621399
3.759516833,-0.769100647,0.014370117,9.756561127
3.769488833,-0.776435394,0.021255798,9.744286652
3.779461833,-0.789158936,0.025596771,9.730215912
3.789433833,-0.779578857,0.021704865,9.739047546
3.799406833,-0.738115082,0.020806732,9.754315796
3.809379833,-0.719703369,0.022004242,9.752519531
3.819351833,-0.744252319,0.014519806,9.745334473
3.829324833,-0.756227417,0.02110611,9.756710815
3.839296833,-0.766106873,0.010178833,9.758357391
3.849269833,-0.773142242,0.019309845,9.745783539
3.859241833,-0.746048584,0.024399261,9.749675446
3.869214833,-0.757125549,0.01287323,9.754615173
3.879187833,-0.740510101,0.0199086,9.756112061
3.889159833,-0.749940491,0.011376343,9.745484161
3.899132833,-0.765657806,0.024698639,9.74443634
3.909104833,-0.765957184,0.013322296,9.753717041
3.919077833,-0.759221191,0.027692413,9.731712799
3.929049833,-0.75817337,0.026644592,9.75147171
3.939022833,-0.763113098,0.019609222,9.736951904
3.948995833,-0.776734772,0.026345215,9.740843811
3.958967833,-0.740510101,0.022453308,9.741592255
3.968940833,-0.753083954,0.027393036,9.730664978
3.978912833,-0.759819946,0.009879456,9.742640076
3.988885833,-0.770447845,0.015567627,9.74802887
3.998857833,-0.748144226,0.019609222,9.749825134
4.008830833,-0.764609985,0.027393036,9.756710815
4.018803833,-0.773291931,0.027542725,9.733509064
4.028775833,-0.752784576,0.022602997,9.732610931
4.038748833,-0.754281464,0.025596771,9.749675446
4.048720833,-0.765059052,0.025147705,9.749076691
4.058693833,-0.755179596,0.010627899,9.75386673
4.068666833,-0.751736755,0.025596771,9.751771088
4.078638833,-0.757724304,0.022004242,9.747280426
4.088611833,-0.738713837,0.020956421,9.751920776
4.098583833,-0.757574615,0.023501129,9.755213928
4.108556833,-0.759819946,0.021555176,9.752519531
4.118528833,-0.729732513,0.022902374,9.759105835
4.128501833,-0.763562164,0.023800507,9.765991516
4.138474833,-0.777183838,0.021255798,9.773026886
4.148446833,-0.741557922,0.021255798,9.762249298
4.158419833,-0.766705627,0.020357666,9.765841827
4.168391833,-0.740061035,0.018112335,9.734706573
4.178364833,-0.747096405,0.022602997,9.753267975
4.188336833,-0.758772125,0.014819183,9.74443634
4.198309833,-0.756377106,0.010777588,9.741592255
4.208282833,-0.757424927,0.022004242,9.749974823
4.218254833,-0.759819946,0.023950195,9.734257507
4.228227833,-0.761466522,0.012723541,9.750423889
4.238199833,-0.755478973,0.024099884,9.74219101
4.248172833,-0.751437378,0.023650818,9.74802887
4.258144833,-0.746198273,0.012124786,9.751621399
4.268117833,-0.74649765,0.026045837,9.744136963
4.278090833,-0.756826172,0.024399261,9.751022644
4.288062833,-0.751886444,0.02694397,9.756112061
4.298035833,-0.750838623,0.019309845,9.775870972
4.308007833,-0.747994537,0.025596771,9.764045563
4.317980833,-0.744252319,0.010777588,9.762398987
4.327952833,-0.761466522,0.027542725,9.763297119
4.337925833,-0.777333527,0.0199086,9.74443634
4.347898833,-0.755329285,0.027093658,9.743089142
4.357870833,-0.770896912,0.020058289,9.749675446
4.367843833,-0.748443604,0.010927277,9.760003967
4.377815833,-0.755778351,0.022153931,9.752220154
4.387788833,-0.767005005,0.025147705,9.738149414
4.397760833,-0.768651581,0.021555176,9.736353149
4.407733833,-0.782572632,0.026045837,9.731263733
4.417705833,-0.775836639,0.014519806,9.733658752
4.427678833,-0.748593292,0.022752686,9.743687897
4.437651833,-0.75473053,0.0199086,9.75730957
4.447623833,-0.746946716,0.023950195,9.745184784
4.457596833,-0.749790802,0.02694397,9.742340698
4.467568833,-0.751886444,0.023501129,9.744735718
4.477541833,-0.737965393,0.024099884,9.749825134
4.487513833,-0.750239868,0.020956421,9.749525757
4.497486833,-0.761616211,0.025896149,9.750573578
4.507459833,-0.756975861,0.023650818,9.750723267
4.517431833,-0.761466522,0.011526031,9.753417664
4.527404833,-0.765508118,0.025447083,9.75386673
4.537376833,-0.753383331,0.021255798,9.752968597
4.547349833,-0.759071503,0.025896149,9.746681671
4.557321833,-0.724643097,0.025896149,9.741891632
4.567294833,-0.758772125,0.013471985,9.748777313
4.577267833,-0.776435394,0.019459534,9.736802216
4.587239833,-0.763113098,0.018112335,9.745035095
4.597212833,-0.787811737,0.027243347,9.74563385
4.607184833,-0.769400024,0.015567627,9.740095367
4.617157833,-0.748293915,0.027842102,9.750723267
4.627129833,-0.73946228,0.022303619,9.7609021
4.637102833,-0.743354187,0.026195526,9.766290894
4.647075833,-0.759819946,0.027842102,9.754166107
4.657047833,-0.757873993,0.013022919,9.75506424
4.667020833,-0.744551697,0.022602997,9.773475952
4.676992833,-0.74305481,0.019459534,9.750573578
4.686966,-0.743204498,0.013172607,9.766590271
4.696938,-0.754880219,0.026045837,9.75850708
4.706911,-0.766256561,0.020058289,9.762249298
4.716884,-0.753383331,0.019609222,9.760602722
4.726856,-0.766705627,0.022153931,9.764494629
4.736829,-0.766705627,0.017812958,9.756561127
4.746801,-0.745749207,0.019758911,9.748627625
4.756774,-0.756826172,0.015567627,9.731712799
4.766746,-0.744102631,0.027393036,9.741741943
4.776719,-0.76760376,0.026494904,9.739496613
4.786691,-0.775537262,0.02110611,9.75506424
4.796664,-0.748293915,0.019160156,9.748627625
4.806637,-0.749491425,0.013921051,9.740245056
4.816609,-0.751287689,0.019160156,9.753118286
4.826582,-0.757275238,0.025896149,9.749376068
4.836554,-0.747844849,0.02454895,9.742041321
4.846527,-0.738863525,0.022752686,9.756710815
4.856499,-0.734522552,0.021555176,9.76314743
4.866472,-0.747545471,0.02335144,9.767189026
4.876445,-0.747395782,0.025447083,9.753118286
4.886417,-0.770148468,0.028440857,9.751920776
4.89639,-0.776435394,0.027692413,9.751920776
4.906362,-0.757724304,0.027542725,9.754615173
4.916335,-0.744851074,0.017663269,9.74443634
4.926307,-0.746946716,0.009580078,9.740694122
4.93628,-0.769100647,0.007933502,9.732012177
4.946252,-0.780626678,0.024698639,9.741891632
4.956225,-0.763262787,0.027093658,9.746082916
4.966198,-0.760718079,0.013322296,9.742939453
4.97617,-0.758772125,0.017812958,9.747430115
4.986143,-0.761316833,0.020657043,9.742490387
4.996115,-0.744551697,0.011526031,9.76314743
5.006088,-0.752784576,0.02574646,9.772278442
5.01606,-0.755329285,0.023800507,9.755363617
5.026033,-0.760269012,0.027842102,9.75147171
5.036006,-0.752934265,0.019758911,9.76314743
5.045978,-0.749940491,0.021854553,9.760003967
5.055951,-0.75592804,0.027393036,9.763895874
5.065923,-0.770447845,0.023950195,9.766290894
5.075896,-0.757574615,0.02574646,9.749376068
5.085868,-0.75937088,0.025147705,9.746981049
5.095841,-0.735420685,0.028141479,9.744286652
5.105813,-0.751736755,0.028141479,9.74443634
5.115786,-0.767454071,0.016914825,9.734706573
5.125759,-0.764160919,0.026345215,9.743987274
5.135731,-0.786913605,0.001496887,9.740095367
5.145704,-0.771944733,0.01047821,9.720635834
5.155676,-0.753383331,0.023201752,9.740843811
5.165649,-0.745898895,0.020058289,9.753118286
5.175621,-0.746198273,0.008083191,9.761949921
5.185594,-0.769998779,0.01047821,9.741292877
5.195567,-0.76520874,0.024399261,9.765692139
5.205539,-0.756826172,0.025297394,9.755213928
5.215512,-0.760418701,0.019459534,9.754016418
5.225484,-0.737666016,0.025596771,9.766440582
5.235457,-0.723894653,0.020058289,9.757459259
5.245429,-0.760418701,0.019459534,9.747879181
5.255402,-0.769699402,0.017812958,9.746082916
5.265374,-0.774339752,0.022153931,9.767937469
5.275347,-0.758772125,0.02454895,9.743837585
5.28532,-0.750988312,0.015867004,9.734257507
5.295292,-0.753832397,0.018262024,9.743388519
5.305265,-0.770298157,0.023800507,9.732610931
5.315237,-0.763562164,0.011076965,9.73515564
5.32521,-0.770896912,0.024848328,9.740544434
5.335182,-0.782422943,0.014220428,9.74443634
5.345155,-0.767454071,0.016914825,9.740843811
5.355127,-0.745749207,0.003742218,9.743538208
5.3651,-0.757873993,0.0199086,9.758656769
5.375073,-0.758921814,0.027842102,9.754166107
5.385045,-0.745449829,0.019609222,9.755213928
5.395018,-0.751587067,0.014519806,9.77257782
5.40499,-0.750838623,0.024099884,9.763297119
5.414963,-0.761616211,0.023650818,9.771679688
5.424935,-0.746347961,0.021704865,9.770332489
5.434908,-0.767454071,0.013471985,9.750423889
5.444881,-0.765059052,0.020507355,9.761500854
5.454853,-0.758622437,0.019758911,9.758357391
5.464826,-0.753233643,0.02335144,9.745184784
5.474798,-0.747395782,0.026644592,9.746232605
5.484771,-0.768651581,0.013921051,9.747430115
5.494743,-0.774190063,0.010777588,9.736203461
5.504716,-0.776734772,0.026494904,9.740544434
5.514688,-0.758622437,0.023201752,9.749376068
5.524661,-0.752485199,0.010627899,9.744286652
5.534634,-0.753083954,0.025297394,9.746082916
5.544606,-0.751736755,0.021405487,9.758656769
5.554579,-0.746347961,0.02335144,9.745783539
5.564551,-0.751587067,0.025596771,9.750573578
5.574524,-0.767154694,0.02454895,9.751920776
5.584496,-0.747395782,0.023052063,9.760303345
5.594469,-0.731977844,0.028440857,9.7701828
5.604441,-0.763113098,0.021854553,9.767787781
5.614414,-0.769849091,0.026494904,9.758956146
5.624386,-0.75592804,0.02694397,9.766440582
5.634359,-0.765059052,0.027692413,9.742041321
5.644332,-0.769250336,0.020357666,9.761650543
5.654304,-0.747395782,0.032632141,9.748477936
5.664277,-0.758921814,0.024698639,9.744735718
5.674249,-0.770447845,0.020207977,9.74219101
5.68422225,-0.749641113,0.013471985,9.736053772
5.69419425,-0.765807495,0.005688171,9.74802887
5.70416725,-0.764759674,0.025297394,9.744885406
5.71414025,-0.770447845,0.01526825,9.744586029
5.72411225,-0.769699402,0.009729767,9.750423889
5.73408525,-0.756227417,0.014220428,9.752968597
5.74405725,-0.750688934,0.021555176,9.740095367
5.75403025,-0.741108856,0.024998016,9.755213928
5.76400225,-0.731828156,0.021704865,9.743538208
5.77397525,-0.749491425,0.023650818,9.742939453
5.78394725,-0.749042358,0.028440857,9.756112061
5.79392025,-0.752036133,0.021405487,9.754016418
5.80389225,-0.745000763,0.010927277,9.749376068
5.81386525,-0.743653564,0.015118561,9.747130737
5.82383825,-0.746048584,0.02110611,9.742490387
5.83381025,-0.753233643,0.024848328,9.745484161
5.84378325,-0.742755432,0.016316071,9.733509064
5.85375525,-0.753982086,0.024249573,9.736502838
5.86372825,-0.758772125,0.026345215,9.739346924
5.87370025,-0.770597534,0.024998016,9.737550659
5.88367325,-0.767903137,0.015567627,9.753717041
5.89364525,-0.761316833,0.017214203,9.745933228
5.90361825,-0.755029907,0.01526825,9.742789764
5.91359125,-0.752784576,0.024698639,9.745484161
5.92356325,-0.751287689,0.013471985,9.75147171
5.93353625,-0.753083954,0.028291168,9.750872955
5.94350825,-0.755179596,0.02110611,9.75850708
5.95348125,-0.749042358,0.027093658,9.776619415
5.96345325,-0.744701385,0.021405487,9.762997742
5.97342625,-0.764160919,0.011226654,9.767338715
5.98339825,-0.743653564,0.026794281,9.75147171
5.99337125,-0.742905121,0.025896149,9.75147171
6.00334425,-0.772393799,0.023800507,9.753567352
6.01331625,-0.749192047,0.026794281,9.757608948
6.02328925,-0.752036133,0.026794281,9.756261749
6.03326125,-0.751736755,0.02110611,9.742640076
6.04323425,-0.743653564,0.02694397,9.731862488
6.05320625,-0.759520569,0.023052063,9.762398987
6.06317925,-0.790506134,0.016016693,9.755812683
6.07315125,-0.795146484,0.01871109,9.736203461
6.08312425,-0.753682709,0.023650818,9.739945679
6.09309725,-0.721200256,0.019160156,9.74802887
6.10306925,-0.726439362,0.01047821,9.753417664
6.11304225,-0.759520569,0.01407074,9.75850708
6.12301425,-0.763861542,0.022752686,9.753417664
6.13298725,-0.761017456,0.022153931,9.753118286
6.14295925,-0.737366638,0.019609222,9.761051788
6.15293225,-0.73482193,0.013471985,9.764195251
6.16290425,-0.733474731,0.027093658,9.763895874
6.17287725,-0.750688934,0.02694397,9.749675446
6.18284925,-0.762364655,0.019758911,9.749675446
6.19282225,-0.774788818,0.026644592,9.764195251
6.20279525,-0.772094421,0.026195526,9.739047546
6.21276725,-0.728235626,0.023950195,9.750423889
6.22274025,-0.761466522,0.007185059,9.749376068
6.23271225,-0.793499908,0.01751358,9.754166107
6.24268525,-0.780327301,0.023201752,9.746082916
6.25265725,-0.761316833,0.016465759,9.736802216
6.26263025,-0.750988312,0.014669495,9.732910309
6.27260225,-0.734223175,0.020956421,9.760003967
6.28257525,-0.758772125,0.012124786,9.751771088
6.29254725,-0.763113098,0.027842102,9.758956146
6.30252025,-0.770298157,0.022752686,9.754914551
6.31249325,-0.758023682,0.020207977,9.745783539
6.32246525,-0.73946228,0.021555176,9.755812683
6.33243825,-0.734223175,0.027692413,9.751621399
6.34241025,-0.735121307,0.027692413,9.749974823
6.35238325,-0.769998779,0.020806732,9.749376068
6.36235525,-0.767753448,0.027842102,9.762548676
6.37232825,-0.763711853,0.021704865,9.743987274
6.38230025,-0.753383331,0.009879456,9.749076691
6.39227325,-0.72075119,0.02110611,9.758656769
6.40224625,-0.758772125,0.0199086,9.749076691
6.41221825,-0.776285706,0.019609222,9.744136963
6.42219125,-0.782722321,0.027093658,9.735455017
6.43216325,-0.75353302,0.01751358,9.755812683
6.44213625,-0.723744965,0.017962646,9.752220154
6.45210825,-0.762664032,0.018411713,9.744735718
6.46208125,-0.762664032,0.023052063,9.755213928
6.47205325,-0.743653564,0.023501129,9.755213928
6.48202625,-0.750988312,0.020507355,9.752818909
6.49199825,-0.734672241,0.024848328,9.767937469
6.50197125,-0.739312592,0.023052063,9.766440582
6.51194425,-0.751437378,0.022902374,9.766290894
6.52191625,-0.74649765,0.019459534,9.75970459
6.53188925,-0.75937088,0.016765137,9.755812683
6.54186125,-0.767903137,0.023201752,9.747130737
6.55183425,-0.759071503,0.024998016,9.752070465
6.56180625,-0.73018158,0.021555176,9.754315796
6.57177925,-0.728535004,0.020806732,9.750573578
6.58175125,-0.766855316,0.021854553,9.744735718
6.59172425,-0.781524811,0.021704865,9.742939453
6.60169625,-0.778680725,0.022153931,9.749974823
6.61166925,-0.756826172,0.022303619,9.736502838
6.62164225,-0.738713837,0.027991791,9.754764862
6.63161425,-0.748293915,0.000149689,9.752220154
6.64158725,-0.746797028,0.022902374,9.754615173
6.65155925,-0.752784576,0.019758911,9.750423889
6.66153225,-0.781524811,0.027991791,9.743089142
6.67150425,-0.747246094,0.019459534,9.754016418
6.681476208,-0.730780334,0.021854553,9.759854279
6.691448208,-0.73362442,0.02454895,9.779912567
6.701421208,-0.743952942,0.02110611,9.760752411
6.711393208,-0.786464539,0.02574646,9.743687897
6.721366208,-0.769100647,0.03397934,9.741741943
6.731339208,-0.769400024,0.028440857,9.742340698
6.741311208,-0.758323059,0.022153931,9.741292877
6.751284208,-0.756227417,0.022153931,9.743388519
6.761256208,-0.768501892,0.021255798,9.744586029
6.771229208,-0.768202515,0.023650818,9.73156311
6.781201208,-0.758323059,0.020657043,9.750723267
6.791174208,-0.76880127,0.018860779,9.751322021
6.801146208,-0.767454071,0.020956421,9.749376068
6.811119208,-0.738264771,0.024249573,9.777816925
6.821091208,-0.75353302,0.019609222,9.752070465
6.831064208,-0.767154694,0.011226654,9.749376068
6.841037208,-0.755778351,0.010178833,9.764045563
6.851009208,-0.75592804,0.021405487,9.758207703
6.860982208,-0.741258545,0.0199086,9.773475952
6.870954208,-0.749192047,0.015867004,9.777816925
6.880927208,-0.770298157,0.022004242,9.760003967
6.890899208,-0.770896912,0.02694397,9.762698364
6.900872208,-0.776285706,0.021555176,9.758956146
6.910844208,-0.750239868,0.021255798,9.756710815
6.920817208,-0.736468506,0.024249573,9.737251282
6.930789208,-0.754431152,0.024399261,9.738299103
6.940762208,-0.749192047,0.001347198,9.732161865
6.950734208,-0.778531036,0.027991791,9.739047546
6.960707208,-0.767154694,0.023201752,9.745184784
6.970680208,-0.74530014,0.027991791,9.756112061
6.980652208,-0.753083954,0.021255798,9.738448792
6.990625208,-0.764909363,0.024249573,9.75266922
7.000597208,-0.759520569,0.016765137,9.749675446
7.010570208,-0.73362442,0.02574646,9.761800232
7.020542208,-0.748443604,0.025297394,9.750573578
7.030515208,-0.744102631,0.024399261,9.754914551
7.040487208,-0.737216949,0.020058289,9.76434494
7.050460208,-0.741707611,0.024698639,9.7502742
7.060432208,-0.779429169,0.024399261,9.759405212
7.070405208,-0.780327301,0.019160156,9.740245056
7.080378208,-0.767304382,0.021854553,9.7502742
7.090350208,-0.747395782,0.02574646,9.757459259
7.100323208,-0.758323059,0.028440857,9.74219101
7.110295208,-0.759819946,0.010627899,9.732910309
7.120268208,-0.764160919,0.020058289,9.748927002
7.130240208,-0.765807495,0.01871109,9.731712799
7.140213208,-0.765059052,0.023950195,9.748477936
7.150185208,-0.757574615,0.023501129,9.741891632
7.160158208,-0.756826172,0.020357666,9.730515289
7.170130208,-0.76640625,0.01751358,9.7609021
7.180103208,-0.762065277,0.0199086,9.752818909
7.190075208,-0.784668274,0.021854553,9.745484161
7.200048208,-0.743503876,0.02574646,9.749825134
7.210021208,-0.761915588,0.022752686,9.743238831
7.219993208,-0.74305481,0.026195526,9.754465485
7.229966208,-0.724044342,0.020058289,9.757758636
7.239938208,-0.754281464,0.024998016,9.745334473
7.249911208,-0.777632904,0.0199086,9.749525757
7.259883208,-0.743952942,0.025596771,9.767937469
7.269856208,-0.769100647,0.014819183,9.764794006
7.279828208,-0.748293915,0.02454895,9.758656769
7.289801208,-0.751886444,0.026345215,9.748477936
7.299773208,-0.786763916,0.020806732,9.742789764
7.309746208,-0.745449829,0.012424164,9.743837585
7.319718208,-0.786464539,0.015717316,9.743987274
7.329691208,-0.78975769,0.015867004,9.755662994
7.339664208,-0.738713837,0.019309845,9.750872955
7.349636208,-0.76520874,0.009729767,9.762548676
7.359609208,-0.737965393,0.01871109,9.758956146
7.369581208,-0.736917572,0.027991791,9.756860504
7.379554208,-0.77224411,0.024249573,9.754764862
7.389526208,-0.742755432,0.021405487,9.750124512
7.399499208,-0.761915588,0.026045837,9.756860504
7.409471208,-0.733474731,0.022453308,9.752369843
7.419444208,-0.728385315,0.023950195,9.769883423
7.429416208,-0.763711853,0.020956421,9.76554245
7.439389208,-0.753982086,0.020657043,9.75970459
7.449361208,-0.763711853,0.022752686,9.75970459
7.459334208,-0.769250336,0.026794281,9.765093384
7.469306208,-0.761466522,0.023950195,9.7502742
7.479279208,-0.746946716,0.020207977,9.734556885
7.489252208,-0.750239868,0.023800507,9.737700348
7.499224208,-0.768352203,0.028291168,9.74563385
7.509197208,-0.767903137,0.017214203,9.743538208
7.519169208,-0.780776367,0.017812958,9.746681671
7.529142208,-0.758023682,0.010029144,9.742939453
7.539114208,-0.746198273,0.021704865,9.746681671
7.549087208,-0.754431152,0.017363892,9.747430115
7.559059208,-0.751886444,0.017214203,9.755363617
7.569032208,-0.759670258,0.025447083,9.757159882
7.579004208,-0.753982086,0.023052063,9.762249298
7.588977208,-0.752036133,0.020806732,9.753417664
7.598949208,-0.737965393,0.021555176,9.744136963
7.608922208,-0.724044342,0.02574646,9.767039337
7.618895208,-0.769849091,0.024848328,9.75386673
7.628867208,-0.7816745,0.024698639,9.753118286
7.638840208,-0.761316833,0.027093658,9.749974823
7.648812208,-0.760418701,0.01871109,9.746232605
7.658785208,-0.761316833,0.026794281,9.75506424
7.668757208,-0.759670258,0.02110611,9.736951904
7.678730208,-0.787362671,0.014370117,9.744586029
7.688702333,-0.77344162,0.01526825,9.746981049
7.698675333,-0.759969635,0.020956421,9.74563385
7.708647333,-0.759520569,0.012274475,9.739197235
7.718620333,-0.745898895,0.013022919,9.758207703
7.728592333,-0.74769516,0.017962646,9.74683136
7.738565333,-0.758323059,0.027692413,9.755812683
7.748537333,-0.75473053,0.023650818,9.750723267
7.758510333,-0.753383331,0.026494904,9.744136963
7.768483333,-0.766855316,0.026345215,9.762698364
7.778455333,-0.734522552,0.02454895,9.752369843
7.788428333,-0.743653564,0.023650818,9.758207703
7.798400333,-0.75592804,0.020207977,9.752070465
7.808373333,-0.776435394,0.016765137,9.771829376
7.818345333,-0.766855316,0.024998016,9.751920776
7.828318333,-0.736318817,0.025447083,9.752818909
7.838290333,-0.733325043,0.019758911,9.753267975
7.848263333,-0.741707611,0.022902374,9.748627625
7.858235333,-0.75353302,0.027692413,9.74443634
7.868208333,-0.775986328,0.027842102,9.730964355
7.878180333,-0.770747223,0.020956421,9.758058014
7.888153333,-0.759969635,0.014519806,9.750872955
7.898125333,-0.749192047,0.012424164,9.75386673
7.908098333,-0.734223175,0.014519806,9.749376068
7.918071333,-0.75353302,0.022153931,9.768236847
7.928043333,-0.776136017,0.009729767,9.740394745
7.938016333,-0.778381348,0.021854553,9.732311554
7.947988333,-0.750988312,0.026644592,9.755213928
7.957961333,-0.717907104,0.02574646,9.749675446
7.967933333,-0.727187805,0.025147705,9.759405212
7.977906333,-0.762514343,0.01751358,9.771679688
7.987878333,-0.763711853,0.023501129,9.749974823
7.997851333,-0.765657806,0.028141479,9.760453033
8.007823333,-0.762963409,0.019459534,9.757459259
8.017796333,-0.738564148,0.011825409,9.734856262
8.027768333,-0.741258545,0.024848328,9.754315796
8.037741333,-0.758772125,0.025147705,9.736502838
8.047713333,-0.781824188,0.026794281,9.742490387
8.057686333,-0.763412476,0.013921051,9.733059998
8.067658333,-0.775836639,0.024099884,9.731114044
8.077631333,-0.753832397,0.015118561,9.741891632
8.087604333,-0.746647339,0.013921051,9.757010193
8.097576333,-0.750389557,0.012274475,9.756112061
8.107549333,-0.767154694,0.01047821,9.765392761
8.117521333,-0.757275238,0.011076965,9.762099609
8.127494333,-0.755029907,0.023650818,9.755812683
8.137466333,-0.748443604,0.025147705,9.766290894
8.147439333,-0.734672241,0.026794281,9.762099609
8.157411333,-0.745898895,0.019758911,9.757608948
8.167384333,-0.770447845,0.022752686,9.751771088
8.177356333,-0.784069519,0.020806732,9.767638092
8.187329333,-0.755628662,0.027093658,9.763596497
8.197301333,-0.757424927,0.028291168,9.740694122
8.207274333,-0.763711853,0.019758911,9.736203461
8.217246333,-0.752784576,0.022602997,9.742041321
8.227219333,-0.786614227,0.025447083,9.752968597
8.237192333,-0.765059052,0.019160156,9.750423889
8.247164333,-0.751437378,0.010328522,9.758956146
8.257137333,-0.777034149,0.02335144,9.746531982
8.267109333,-0.764310608,0.01047821,9.750124512
8.277082333,-0.752784576,0.013921051,9.748777313
8.287054333,-0.762214966,0.025147705,9.743687897
8.297027333,-0.739611969,0.02454895,9.7502742
8.306999333,-0.738414459,0.009729767,9.744136963
8.316972333,-0.754580841,0.018112335,9.774972839
8.326944333,-0.74649765,0.02694397,9.763746185
8.336917333,-0.77808197,0.021405487,9.76434494
8.346889333,-0.733923798,0.018561401,9.761949921
8.356862333,-0.73482193,0.023950195,9.766141205
8.366834333,-0.778680725,0.011526031,9.736203461
8.376807333,-0.744102631,0.021854553,9.75506424
8.386779333,-0.742755432,0.027692413,9.742490387
8.396752333,-0.76520874,0.02454895,9.74443634
8.406725333,-0.786763916,0.028291168,9.743238831
8.416697333,-0.763113098,0.020357666,9.738299103
8.426670333,-0.73946228,0.017064514,9.741143188
8.436642333,-0.776136017,0.01751358,9.74683136
8.446615333,-0.775387573,0.021255798,9.747130737
8.456587333,-0.759520569,0.027842102,9.757758636
8.466560333,-0.753383331,0.020058289,9.742490387
8.476532333,-0.761616211,0.021255798,9.757159882
8.486505333,-0.743952942,0.019309845,9.777367859
8.496477333,-0.760418701,0.022153931,9.752519531
8.506450333,-0.750090179,0.020207977,9.75147171
8.516422333,-0.735570374,0.021704865,9.756860504
8.526395333,-0.771795044,0.020058289,9.757758636
8.536367333,-0.755029907,0.025297394,9.75386673
8.546340333,-0.751886444,0.015417938,9.745334473
8.556312333,-0.767753448,0.022303619,9.735005951
8.566285333,-0.752934265,0.020058289,9.73395813
8.576257333,-0.75353302,0.025297394,9.744136963
8.586230333,-0.755329285,0.026345215,9.730664978
8.596202333,-0.767753448,0.010178833,9.730664978
8.606175333,-0.751287689,0.027393036,9.735455017
8.616148333,-0.754880219,0.007334747,9.748627625
8.626120333,-0.755778351,0.022153931,9.734407196
8.636093333,-0.7418573,0.011526031,9.765093384
8.646065333,-0.759819946,0.023950195,9.743089142
8.656038333,-0.747395782,0.011076965,9.757159882
8.666010333,-0.743354187,0.014968872,9.764644318
8.675983333,-0.755029907,0.027243347,9.756261749
8.685955708,-0.73362442,0.025596771,9.777367859
8.695928708,-0.757574615,0.021704865,9.770482178
8.705900708,-0.748593292,0.023501129,9.783205719
8.715873708,-0.746946716,0.016316071,9.755812683
8.725845708,-0.7710466,0.021555176,9.750723267
8.735818708,-0.737067261,0.021555176,9.758956146
8.745790708,-0.742605743,0.01751358,9.753267975
8.755763708,-0.755029907,0.027393036,9.742640076
8.765735708,-0.762514343,0.023800507,9.742041321
8.775708708,-0.763412476,0.016765137,9.751022644
8.785680708,-0.774339752,0.02454895,9.736502838
8.795653708,-0.742755432,0.025447083,9.744735718
8.805626708,-0.752784576,0.02110611,9.749376068
8.815598708,-0.741557922,0.025297394,9.77377533
8.825571708,-0.742905121,0.023501129,9.761800232
8.835543708,-0.788111115,0.022303619,9.752369843
8.845516708,-0.779878235,0.020207977,9.756411438
8.855488708,-0.75473053,0.023650818,9.766440582
8.865461708,-0.743952942,0.02110611,9.765991516
8.875433708,-0.738863525,0.0199086,9.77602066
8.885406708,-0.757424927,0.026345215,9.770332489
8.895378708,-0.764460297,0.021255798,9.767189026
8.905351708,-0.769849091,0.028291168,9.759405212
8.915323708,-0.760119324,0.026794281,9.744885406
8.925296708,-0.758772125,0.024249573,9.740843811
8.935268708,-0.746946716,0.010328522,9.742640076
8.945241708,-0.756975861,0.021704865,9.740245056
8.955213708,-0.799487457,0.010029144,9.748178558
8.965186708,-0.777632904,0.023650818,9.722132721
8.975158708,-0.742306366,0.02454895,9.74443634
8.985131708,-0.71611084,0.020956421,9.756411438
8.995103708,-0.740210724,0.028291168,9.732012177
9.005076708,-0.790805511,0.008831635,9.742490387
9.015048708,-0.788260803,0.018112335,9.730066223
9.025021708,-0.757724304,0.020806732,9.733059998
9.034994708,-0.751138,0.02574646,9.762398987
9.044966708,-0.716709595,0.017363892,9.752519531
9.054939708,-0.751287689,0.020806732,9.759554901
9.064911708,-0.756975861,0.022752686,9.750423889
9.074884708,-0.792901154,0.019459534,9.743538208
9.084856708,-0.778231659,0.020357666,9.736802216
9.094829708,-0.724343719,0.021854553,9.7210849
9.104801708,-0.705333252,0.027542725,9.741292877
9.114774708,-0.739761658,0.027243347,9.749076691
9.124746708,-0.771495667,0.023201752,9.735904083
9.134719708,-0.784668274,0.023201752,9.738299103
9.144691708,-0.76520874,0.016316071,9.746382294
9.154664708,-0.730780334,0.025896149,9.751920776
9.164636708,-0.738713837,0.015567627,9.755213928
9.174609708,-0.759520569,0.022902374,9.758357391
9.184581708,-0.744851074,0.022303619,9.758656769
9.194554708,-0.753383331,0.009580078,9.757459259
9.204526708,-0.756377106,0.012274475,9.757159882
9.214499708,-0.738713837,0.011825409,9.77602066
9.224471708,-0.719853058,0.024848328,9.76434494
9.234444708,-0.736318817,0.019160156,9.759255524
9.244416708,-0.784069519,0.020956421,9.748627625
9.254389708,-0.780626678,0.022004242,9.742789764
9.264361708,-0.733774109,0.024249573,9.75147171
9.274334708,-0.727187805,0.028440857,9.762997742
9.284307708,-0.74889267,0.023501129,9.741143188
9.294279708,-0.735420685,0.001496887,9.760453033
9.304252708,-0.771795044,0.026494904,9.753567352
9.314224708,-0.779429169,0.024099884,9.757010193
9.324197708,-0.727337494,0.020357666,9.754914551
9.334169708,-0.736917572,0.025896149,9.776918793
9.344142708,-0.752634888,0.026345215,9.767189026
9.354114708,-0.742905121,0.02574646,9.766590271
9.364087708,-0.766106873,0.015717316,9.761949921
9.374059708,-0.764460297,0.020806732,9.76314743
9.384032708,-0.75353302,0.012274475,9.784403229
9.394004708,-0.760718079,0.022902374,9.775870972
9.403977708,-0.744402008,0.022453308,9.754465485
9.413949708,-0.745000763,0.027093658,9.777068481
9.423922708,-0.771196289,0.020507355,9.771679688
9.433894708,-0.774190063,0.028590546,9.765841827
9.443867708,-0.749341736,0.02335144,9.761800232
9.453839708,-0.743803253,0.016615448,9.76434494
9.463812708,-0.749341736,0.02110611,9.753567352
9.473784708,-0.746198273,0.028141479,9.760453033
9.483757708,-0.762065277,0.027542725,9.756411438
9.493729708,-0.769400024,0.019459534,9.744286652
9.503702708,-0.761017456,0.021704865,9.742340698
9.513674708,-0.759520569,0.01167572,9.74802887
9.523647708,-0.769699402,0.010627899,9.753118286
9.533619708,-0.77224411,0.028291168,9.764644318
9.543592708,-0.753982086,0.013771362,9.753118286
9.553565708,-0.750539246,0.023950195,9.757758636
9.563537708,-0.758622437,0.02335144,9.743089142
9.573510708,-0.768202515,0.020806732,9.758357391
9.583482708,-0.753682709,0.024698639,9.756411438
9.593455708,-0.742456055,0.011825409,9.740843811
9.603427708,-0.750389557,0.025447083,9.749076691
9.613400708,-0.762813721,0.021704865,9.748178558
9.623372708,-0.755179596,0.011825409,9.739346924
9.633345708,-0.745000763,0.011076965,9.75506424
9.643317708,-0.759969635,0.013921051,9.736353149
9.653290708,-0.766106873,0.02454895,9.725575562
9.663262708,-0.765657806,0.01407074,9.748477936
9.673235708,-0.739761658,0.021405487,9.74563385
9.683207458,-0.735720062,0.017214203,9.73740097
9.693180458,-0.748443604,0.015717316,9.747430115
9.703152458,-0.75817337,0.019758911,9.745783539
9.713125458,-0.751736755,0.025447083,9.738299103
9.723097458,-0.772693176,0.027542725,9.742939453
9.733070458,-0.772393799,0.023800507,9.733359375
9.743042458,-0.752934265,0.021555176,9.730964355
9.753015458,-0.739911346,0.021555176,9.752369843
9.762987458,-0.737366638,0.024249573,9.754764862
9.772960458,-0.75353302,0.023800507,9.734706573
9.782932458,-0.766256561,0.011076965,9.733359375
9.792905458,-0.761316833,0.010627899,9.752070465
9.802877458,-0.747246094,0.022153931,9.747729492
9.812850458,-0.747844849,0.026345215,9.767638092
9.822822458,-0.756975861,0.022902374,9.755363617
9.832795458,-0.740061035,0.023950195,9.743238831
9.842767458,-0.737815704,0.024249573,9.768236847
9.852740458,-0.75937088,0.027991791,9.756261749
9.862713458,-0.752934265,0.014819183,9.749825134
9.872685458,-0.75233551,0.026494904,9.757459259
9.882658458,-0.764160919,0.027991791,9.758656769
9.892630458,-0.75937088,0.02694397,9.749675446
9.902603458,-0.747096405,0.013921051,9.76314743
9.912575458,-0.75817337,0.027393036,9.768236847
9.922548458,-0.771196289,0.02574646,9.76554245
9.932520458,-0.768052826,0.019309845,9.767488403
9.942493458,-0.76640625,0.020058289,9.73979599
9.952465458,-0.777782593,0.026045837,9.751920776
9.962438458,-0.744701385,0.01407074,9.769733734
9.972410458,-0.737216949,0.02335144,9.767488403
9.982383458,-0.760269012,0.013471985,9.765093384
9.992355458,-0.753832397,0.027692413,9.768236847
10.00232846,-0.770597534,0.012723541,9.760602722
10.01230046,-0.763861542,0.023052063,9.762398987
10.02227346,-0.752934265,0.028440857,9.755213928
10.03224546,-0.753682709,0.020956421,9.755962372
10.04221846,-0.745449829,0.023501129,9.752519531
10.05219046,-0.769100647,0.020207977,9.768087158
10.06216346,-0.784069519,0.015567627,9.755812683
10.07213546,-0.763562164,0.023650818,9.760453033
10.08210846,-0.754580841,0.020357666,9.761949921
10.09208046,-0.762514343,0.019160156,9.754166107
10.10205346,-0.768950958,0.022303619,9.75506424
10.11202546,-0.753233643,0.016016693,9.740095367
10.12199846,-0.749341736,0.018411713,9.765692139
10.13197046,-0.769400024,0.027692413,9.752070465
10.14194346,-0.778680725,0.027991791,9.738897858
10.15191546,-0.757873993,0.0199086,9.758058014
10.16188846,-0.745000763,0.009580078,9.752519531
10.17186046,-0.765358429,0.016316071,9.7409935
10.18183346,-0.754431152,0.021704865,9.746232605
10.19180546,-0.760119324,0.027542725,9.750872955
10.20177846,-0.756227417,0.015118561,9.739197235
10.21175046,-0.775537262,0.011825409,9.745933228
10.22172346,-0.746198273,0.026644592,9.738748169
10.23169646,-0.745898895,0.012573853,9.735305328
10.24166846,-0.779728546,0.02454895,9.734107819
10.25164146,-0.771196289,0.021405487,9.748777313
10.26161346,-0.754580841,0.024399261,9.742789764
10.27158646,-0.783321075,0.024698639,9.74802887
10.28155846,-0.758622437,0.014819183,9.736802216
10.29153146,-0.761616211,0.024998016,9.747879181
10.30150346,-0.765059052,0.023052063,9.745184784
10.31147646,-0.760119324,0.012723541,9.745933228
10.32144846,-0.745150452,0.009879456,9.757908325
10.33142146,-0.756676483,0.021854553,9.742939453
10.34139346,-0.756975861,0.017962646,9.755962372
10.35136646,-0.742905121,0.0199086,9.751621399
10.36133846,-0.75473053,0.019160156,9.752818909
10.37131146,-0.770896912,0.015717316,9.762848053
10.38128346,-0.763711853,0.024099884,9.756261749
10.39125646,-0.751587067,0.022004242,9.74683136
10.40122846,-0.748443604,0.025147705,9.748777313
10.41120146,-0.745749207,0.011825409,9.743837585
10.42117346,-0.755329285,0.022153931,9.744885406
10.43114646,-0.76640625,0.025896149,9.734856262
10.44111846,-0.763562164,0.019758911,9.75730957
10.45109146,-0.76056839,0.027093658,9.745783539
10.46106346,-0.769699402,0.025297394,9.740694122
10.47103646,-0.758472748,0.012124786,9.743837585
10.48100846,-0.757724304,0.023800507,9.758207703
10.49098146,-0.766256561,0.020357666,9.749974823
10.50095346,-0.756826172,0.027393036,9.768685913
10.51092646,-0.770747223,0.014669495,9.760752411
10.52089846,-0.759670258,0.028440857,9.765243073
10.53087146,-0.767304382,0.022602997,9.759554901
10.54084346,-0.782123566,0.016914825,9.75730957
10.55081646,-0.754431152,0.028291168,9.750723267
10.56078846,-0.757275238,0.025596771,9.762548676
10.57076146,-0.759221191,0.025596771,9.777367859
10.58073346,-0.762214966,0.020357666,9.749675446
10.59070646,-0.753233643,0.021704865,9.751771088
10.60067846,-0.756077728,0.01526825,9.75506424
10.61065146,-0.753083954,0.023800507,9.765392761
10.62062346,-0.760119324,0.024848328,9.741292877
10.63059646,-0.759520569,0.023800507,9.751322021
10.64056846,-0.737666016,0.018860779,9.756710815
10.65054146,-0.770747223,0.027393036,9.75506424
10.66051346,-0.763562164,0.028440857,9.75730957
10.67048646,-0.742306366,0.026794281,9.766141205
10.68045846,-0.748593292,0.022153931,9.748178558
10.69043196,-0.754431152,0.013022919,9.764494629
10.70040396,-0.733325043,0.021854553,9.766141205
10.71037696,-0.751287689,0.021704865,9.761650543
10.72034896,-0.74889267,0.014819183,9.769733734
10.73032196,-0.746647339,0.022303619,9.757608948
10.74029396,-0.766256561,0.027991791,9.74683136
10.75026696,-0.73362442,0.029338989,9.754315796
10.76023996,-0.723744965,0.016465759,9.762398987
10.77021196,-0.758023682,0.020956421,9.77377533
10.78018496,-0.7418573,0.023950195,9.757459259
10.79015696,-0.823138275,0.013172607,9.733658752
10.80012996,-0.717458038,0.027842102,9.761351166
10.81010196,-0.737815704,0.022602997,9.749525757
10.82007496,-0.731678467,0.0199086,9.754315796
10.83004696,-0.757574615,0.010029144,9.746981049
10.84001996,-0.775986328,0.027692413,9.752070465
10.84999196,-0.786763916,0.025447083,9.745184784
10.85996496,-0.78047699,0.020357666,9.756411438
10.86993696,-0.699196014,0.017812958,9.740694122
10.87990996,-0.744551697,0.010777588,9.755962372
10.88988196,-0.733923798,0.028440857,9.745933228
10.89985496,-0.765508118,0.0199086,9.75970459
10.90982696,-0.752634888,0.021255798,9.774823151
10.91979996,-0.780327301,0.017663269,9.740694122
10.92977196,-0.741707611,0.021255798,9.761500854
10.93974496,-0.719104614,0.023650818,9.765243073
10.94971696,-0.776435394,0.012424164,9.747879181
10.95968996,-0.721499634,0.021405487,9.756112061
10.96966196,-0.770298157,0.021555176,9.74443634
10.97963496,-0.749790802,0.020806732,9.754615173
10.98960696,-0.761616211,0.02574646,9.720785522
10.99957996,-0.773142242,0.025147705,9.759255524
11.00955196,-0.715961151,0.021704865,9.754166107
11.01952496,-0.759520569,0.021555176,9.74219101
11.02949696,-0.777183838,0.025596771,9.738149414
11.03946996,-0.799337769,0.022602997,9.732461243
11.04944196,-0.750688934,0.013172607,9.74802887
11.05941496,-0.741408234,0.027093658,9.755812683
11.06938696,-0.75233551,0.020956421,9.75147171
11.07935996,-0.765508118,0.027393036,9.726473694
11.08933196,-0.747994537,0.024998016,9.761949921
11.09930496,-0.727636871,0.02574646,9.753717041
11.10927696,-0.797092438,0.026345215,9.748328247
11.11924996,-0.727636871,0.015717316,9.757758636
11.12922196,-0.72075119,0.023052063,9.757758636
11.13919496,-0.760867767,0.023052063,9.752369843
11.14916696,-0.761316833,0.022902374,9.767638092
11.15913996,-0.773591309,0.025596771,9.751172333
11.16911196,-0.743204498,0.025297394,9.749525757
11.17908496,-0.716859283,0.02454895,9.752968597
11.18905696,-0.740360413,0.025147705,9.749675446
11.19902996,-0.749192047,0.022752686,9.756710815
11.20900196,-0.771645355,0.012424164,9.742939453
11.21897496,-0.750239868,0.025147705,9.753417664
11.22894696,-0.767005005,0.025147705,9.743238831
11.23891996,-0.780776367,0.023201752,9.754914551
11.24889196,-0.742456055,0.023650818,9.750423889
11.25886496,-0.743952942,0.016914825,9.744136963
11.26883696,-0.758323059,0.028291168,9.747729492
11.27880996,-0.777333527,0.016016693,9.743089142
11.28878196,-0.73362442,0.020956421,9.75970459
11.29875496,-0.778980103,0.009879456,9.755962372
11.30872696,-0.758622437,0.025147705,9.76434494
11.31869996,-0.725690918,0.021405487,9.770931244
11.32867196,-0.767154694,0.017064514,9.767189026
11.33864496,-0.74649765,0.019459534,9.776170349
11.34861696,-0.775088196,0.026794281,9.762249298
11.35858996,-0.757275238,0.026794281,9.768087158
11.36856196,-0.764310608,0.012274475,9.766440582
11.37853496,-0.737216949,0.02574646,9.757010193
11.38850696,-0.761316833,0.013471985,9.762698364
11.39847996,-0.765059052,0.022303619,9.735005951
11.40845196,-0.758472748,0.024399261,9.763596497
11.41842496,-0.790805511,0.013172607,9.764195251
11.42839696,-0.76640625,0.016465759,9.75147171
11.43836996,-0.788410492,0.023800507,9.749525757
11.44834196,-0.738713837,0.021704865,9.766440582
11.45831496,-0.749790802,0.016615448,9.762249298
11.46828696,-0.764460297,0.010777588,9.7502742
11.47825996,-0.757724304,0.01407074,9.760602722
11.48823196,-0.751736755,0.02574646,9.758207703
11.49820496,-0.76056839,0.026195526,9.751621399
11.50817696,-0.753682709,0.023052063,9.759554901
11.51814996,-0.778680725,0.012573853,9.752070465
11.52812196,-0.755478973,0.019609222,9.761650543
11.53809496,-0.748593292,0.021405487,9.741741943
11.54806696,-0.774938507,0.025596771,9.740843811
11.55803996,-0.747096405,0.028141479,9.741442566
11.56801196,-0.725541229,0.023501129,9.741292877
11.57798496,-0.769100647,0.014519806,9.721234589
11.58795696,-0.77808197,0.012124786,9.744136963
11.59792996,-0.752634888,0.023201752,9.727072449
11.60790196,-0.757724304,0.022303619,9.736053772
11.61787496,-0.762514343,0.016465759,9.750423889
11.62784696,-0.750090179,0.019609222,9.755363617
11.63781996,-0.750389557,0.011076965,9.749076691
11.64779196,-0.756227417,0.025896149,9.755812683
11.65776496,-0.752036133,0.017363892,9.742041321
11.66773696,-0.746647339,0.026045837,9.751172333
11.67770996,-0.742006989,0.027692413,9.751322021
11.68768196,-0.750838623,0.026045837,9.752968597
11.69765496,-0.749192047,0.025596771,9.766889648
11.70762696,-0.771345978,0.011975098,9.753717041
11.71759996,-0.780626678,0.015118561,9.740394745
11.72757196,-0.748293915,0.020207977,9.740843811
11.73754496,-0.755329285,0.011975098,9.755213928
11.74751696,-0.7710466,0.016914825,9.743687897
11.75748896,-0.753233643,0.025297394,9.721384277
11.76746196,-0.768052826,0.026045837,9.746232605
11.77743496,-0.774040375,0.026794281,9.730515289
11.78740696,-0.787662048,0.016914825,9.735604706
11.79737896,-0.748593292,0.019160156,9.735455017
11.80735196,-0.756526794,0.022303619,9.745035095
11.81732396,-0.752784576,0.025147705,9.75506424
11.82729696,-0.737366638,0.017064514,9.754764862
11.83726896,-0.757275238,0.024698639,9.749675446
11.84724196,-0.780327301,0.028291168,9.749825134
11.85721396,-0.772693176,0.020657043,9.756710815
11.86718696,-0.746198273,0.020207977,9.769584045
11.87715896,-0.744252319,0.020657043,9.775122528
11.88713196,-0.755329285,0.016016693,9.763297119
11.89710396,-0.773740997,0.014519806,9.75386673
11.90707696,-0.764160919,0.02110611,9.753717041
11.91704896,-0.767304382,0.02335144,9.762249298
11.92702196,-0.762364655,0.025896149,9.762698364
11.93699396,-0.754880219,0.02110611,9.763596497
11.94696696,-0.755628662,0.020357666,9.747879181
11.95693896,-0.777932281,0.022153931,9.754615173
11.96691196,-0.774788818,0.025596771,9.755812683
11.97688396,-0.76760376,0.017363892,9.75506424
11.98685696,-0.770747223,0.016765137,9.75506424
11.99682896,-0.756676483,0.020058289,9.749525757
12.00680196,-0.734372864,0.02454895,9.759405212
12.01677396,-0.755628662,0.022153931,9.766141205
12.02674696,-0.763262787,0.025596771,9.776619415
12.03671896,-0.774040375,0.024698639,9.762099609
12.04669196,-0.761017456,0.013771362,9.751322021
12.05666396,-0.747994537,0.015118561,9.769584045
12.06663696,-0.761316833,0.020806732,9.774224396
12.07660896,-0.756227417,0.025297394,9.772128754
12.08658196,-0.76520874,0.021255798,9.755962372
12.09655396,-0.752485199,0.023650818,9.760153656
12.10652696,-0.738713837,0.028291168,9.755513306
12.11649896,-0.754281464,0.028440857,9.747130737
12.12647196,-0.752485199,0.023800507,9.741442566
12.13644396,-0.764460297,0.024249573,9.742939453
12.14641696,-0.780626678,0.014519806,9.735904083
12.15638896,-0.76520874,0.022004242,9.755363617
12.16636196,-0.746048584,0.02574646,9.747130737
12.17633396,-0.744851074,0.020357666,9.750872955
12.18630696,-0.740360413,0.020357666,9.753567352
12.19627896,-0.749341736,0.016615448,9.752968597
12.20625196,-0.768052826,0.011526031,9.740245056
12.21622396,-0.738264771,0.025596771,9.74219101
12.22619696,-0.752185822,0.012424164,9.767039337
12.23616896,-0.731079712,0.020657043,9.774074707
12.24614196,-0.732726288,0.026345215,9.75506424
12.25611396,-0.7418573,0.01526825,9.764644318
12.26608696,-0.736468506,0.020058289,9.75506424
12.27605896,-0.755029907,0.026045837,9.743687897
12.28603196,-0.77688446,0.012573853,9.753267975
12.29600396,-0.770148468,0.027093658,9.75850708
12.30597596,-0.749940491,0.01167572,9.739197235
12.31594896,-0.740360413,0.010328522,9.73395813
12.32592096,-0.751437378,0.027542725,9.748777313
12.33589396,-0.762065277,0.018561401,9.742340698
12.34586596,-0.766855316,0.01287323,9.733359375
12.35583896,-0.735869751,0.028291168,9.741592255
12.36581096,-0.746048584,0.011076965,9.741592255
12.37578396,-0.762514343,0.026494904,9.731263733
12.38575596,-0.753083954,0.015717316,9.744136963
12.39572896,-0.74889267,0.020956421,9.74802887
12.40570096,-0.764759674,0.023052063,9.751621399
12.41567396,-0.73601944,0.021255798,9.744586029
12.42564596,-0.731528778,0.022004242,9.758656769
12.43561896,-0.758772125,0.018411713,9.775122528
12.44559096,-0.762664032,0.024249573,9.759854279
12.45556396,-0.766855316,0.025447083,9.743388519
12.46553596,-0.752485199,0.027093658,9.749675446
12.47550896,-0.72778656,0.022303619,9.753417664
12.48548096,-0.779728546,0.027243347,9.764943695
12.49545396,-0.778680725,0.019609222,9.744136963
12.50542596,-0.751587067,0.02110611,9.732610931
12.51539896,-0.764609985,0.01871109,9.751022644
12.52537096,-0.74530014,0.017812958,9.757010193
12.53534396,-0.751736755,0.01167572,9.754914551
12.54531596,-0.750688934,0.019459534,9.7609021
12.55528896,-0.768202515,0.024099884,9.757908325
12.56526096,-0.769849091,0.023201752,9.765692139
12.57523396,-0.749341736,0.019609222,9.762548676
12.58520596,-0.725391541,0.022902374,9.760602722
12.59517896,-0.746048584,0.016615448,9.76314743
12.60515096,-0.777632904,0.028141479,9.771230621
12.61512396,-0.759670258,0.020357666,9.769584045
12.62509596,-0.75353302,0.012424164,9.775870972
12.63506796,-0.763262787,0.019609222,9.749974823
12.64504096,-0.764759674,0.020657043,9.758956146
12.65501296,-0.741557922,0.021854553,9.767488403
12.66498596,-0.746647339,0.027842102,9.73979599
12.67495796,-0.775537262,0.026195526,9.759405212
12.68493025,-0.77688446,0.022752686,9.757908325
12.69490225,-0.761316833,0.021555176,9.744885406
12.70487525,-0.738564148,0.025147705,9.753267975
12.71484725,-0.734672241,0.019309845,9.759255524
12.72482025,-0.755179596,0.017663269,9.753717041
12.73479225,-0.76640625,0.024998016,9.761051788
12.74476525,-0.74305481,0.014220428,9.756710815
12.75473725,-0.758472748,0.01167572,9.771529999
12.76471025,-0.767753448,0.024099884,9.755213928
12.77468225,-0.759520569,0.016465759,9.769284668
12.78465525,-0.73018158,0.013621674,9.762548676
12.79462725,-0.762364655,0.016615448,9.761650543
12.80460025,-0.758921814,0.020507355,9.763746185
12.81457225,-0.746347961,0.023201752,9.751771088
12.82454525,-0.747246094,0.028440857,9.749525757
12.83451725,-0.757724304,0.023950195,9.743987274
12.84449025,-0.773890686,0.020357666,9.735305328
12.85446225,-0.759819946,0.016166382,9.747280426
12.86443525,-0.744402008,0.014669495,9.755363617
12.87440725,-0.749940491,0.026494904,9.738897858
12.88438025,-0.778381348,0.025596771,9.752818909
12.89435225,-0.763113098,0.011226654,9.751621399
12.90432425,-0.756377106,0.02574646,9.757908325
12.91429725,-0.768352203,0.017214203,9.756261749
12.92426925,-0.758323059,0.025147705,9.75850708
12.93424225,-0.737815704,0.025297394,9.748178558
12.94421425,-0.747246094,0.019309845,9.732012177
12.95418725,-0.757724304,0.01871109,9.74443634
12.96415925,-0.757125549,0.018860779,9.751172333
12.97413225,-0.753383331,0.026644592,9.742789764
12.98410425,-0.74305481,0.02335144,9.754615173
12.99407725,-0.753832397,0.026045837,9.74683136
13.00404925,-0.75592804,0.021854553,9.739945679
13.01402225,-0.755179596,0.028141479,9.734556885
13.02399425,-0.756975861,0.022004242,9.742490387
13.03396725,-0.765957184,0.028141479,9.723779297
13.04393925,-0.766855316,0.020657043,9.739047546
13.05391225,-0.774938507,0.018112335,9.729467468
13.06388425,-0.783021698,0.020058289,9.734856262
13.07385725,-0.755329285,0.021555176,9.740394745
13.08382925,-0.761316833,0.017663269,9.723030853
13.09380225,-0.753233643,0.015417938,9.741891632
13.10377425,-0.76401123,0.011975098,9.754016418
13.11374725,-0.750838623,0.028440857,9.747579803
13.12371925,-0.763412476,0.015417938,9.753567352
13.13369125,-0.766256561,0.021555176,9.752818909
13.14366425,-0.737216949,0.028291168,9.753417664
13.15363625,-0.733474731,0.027393036,9.769584045
13.16360925,-0.766256561,0.013322296,9.777068481
13.17358125,-0.783770142,0.023800507,9.776769104
13.18355425,-0.771196289,0.025447083,9.77602066
13.19352625,-0.763113098,0.024099884,9.758956146
13.20349925,-0.74649765,0.01751358,9.741592255
13.21347125,-0.729133759,0.021854553,9.754166107
13.22344425,-0.780776367,0.020806732,9.764644318
13.23341625,-0.767005005,0.0199086,9.740394745
13.24338925,-0.759670258,0.016016693,9.765392761
13.25336125,-0.762664032,0.027093658,9.733509064
13.26333425,-0.787811737,0.020357666,9.750723267
13.27330625,-0.743653564,0.013322296,9.757010193
13.28327925,-0.738863525,0.011226654,9.749525757
13.29325125,-0.754580841,0.020956421,9.752968597
13.30322425,-0.775387573,0.013172607,9.75506424
13.31319625,-0.743204498,0.0199086,9.769134979
13.32316825,-0.737965393,0.024998016,9.768685913
13.33314125,-0.745898895,0.023950195,9.776619415
13.34311325,-0.780027924,0.025596771,9.762698364
13.35308625,-0.766106873,0.026045837,9.772278442
13.36305825,-0.754131775,0.026644592,9.758956146
13.37303125,-0.786165161,0.0199086,9.753717041
13.38300325,-0.765957184,0.020207977,9.757459259
13.39297625,-0.740809479,0,9.75850708
13.40294825,-0.760718079,0.022602997,9.752519531
13.41292125,-0.749790802,0.019459534,9.746981049
13.42289325,-0.78751236,0.022303619,9.755662994
13.43286625,-0.769849091,0.009729767,9.747579803
13.44283825,-0.771645355,0.010777588,9.73515564
13.45281125,-0.772842865,0.026045837,9.752070465
13.46278325,-0.750239868,0.014819183,9.752070465
13.47275625,-0.756826172,0.019309845,9.757459259
13.48272825,-0.765807495,0.021854553,9.747579803
13.49270125,-0.764609985,0.013172607,9.749974823
13.50267325,-0.761616211,0.021854553,9.749825134
13.51264525,-0.738115082,0.014370117,9.762997742
13.52261825,-0.743354187,0.018262024,9.746681671
13.53259025,-0.770896912,0.009729767,9.751172333
13.54256325,-0.77224411,0.025896149,9.74802887
13.55253525,-0.767304382,0.024698639,9.758207703
13.56250825,-0.75233551,0.020207977,9.753567352
13.57248025,-0.748144226,0.021405487,9.74683136
13.58245325,-0.751437378,0.005987549,9.748178558
13.59242525,-0.755628662,0.027093658,9.729766846
13.60239825,-0.789907379,0.015118561,9.748328247
13.61237025,-0.790057068,0.01167572,9.736652527
13.62234325,-0.744701385,0.011975098,9.739346924
13.63231525,-0.735570374,0.014519806,9.757908325
13.64228825,-0.750389557,0.015567627,9.741143188
13.65226025,-0.74065979,0.02454895,9.7502742
13.66223225,-0.771345978,0.011226654,9.753417664
13.67220525,-0.754431152,0.019758911,9.740095367
13.68217725,-0.75473053,0.027393036,9.756860504
13.69215133,-0.725092163,0.020207977,9.756860504
13.70212333,-0.73362442,0.02694397,9.754166107
13.71209633,-0.750389557,0.019459534,9.765692139
13.72206833,-0.764310608,0.025447083,9.751022644
13.73204133,-0.764460297,0.011825409,9.757459259
13.74201333,-0.755478973,0.020806732,9.750872955
13.75198633,-0.736618195,0.019758911,9.750723267
13.76195833,-0.737067261,0.021255798,9.739496613
13.77193133,-0.743803253,0.02574646,9.742041321
13.78190333,-0.778531036,0.020207977,9.757459259
13.79187633,-0.764160919,0.024998016,9.731263733
13.80184833,-0.747545471,0.020357666,9.734556885
13.81182133,-0.738115082,0.021255798,9.73395813
13.82179333,-0.743503876,0.004790039,9.748927002
13.83176533,-0.749790802,-0.00823288,9.76673996
13.84173833,-0.744551697,0,9.739346924
13.85171033,-0.795146484,0.034428406,9.75386673
13.86168333,-0.732875977,0.052391052,9.776769104
13.87165533,-0.696501617,0.070952454,9.759405212
13.88162833,-0.725690918,-0.07604187,9.798923035
13.89160033,-0.926423492,0.08187973,9.830507355
13.90157333,-0.534837799,0.025147705,9.73156311
13.91154533,-1.01099762,0.006137238,9.725276184
13.92151833,-0.538130951,0.030087433,9.809550934
13.93149033,-0.764160919,0.020956421,9.690548401
13.94146333,-0.879720612,0.007484436,9.800120544
13.95143533,-0.406554565,0.001047821,9.784702606
13.96140833,-1.409319305,-0.015717316,9.694589996
13.97138033,-0.116607513,0.015717316,9.858199768
13.98135233,-1.115330658,0.041912842,9.714797974
13.99132533,-0.738414459,-0.013921051,9.737251282
14.00129733,-0.551004181,-0.017962646,9.860594788
14.01127033,-1.331331482,-0.01167572,9.641899567
14.02124233,0.058228912,0.067659302,9.771529999
14.03121533,-1.021775208,-0.0398172,9.845925293
14.04118733,-1.049766998,0.050894165,9.645791473
14.05116033,-0.462987213,0.033829651,9.935738525
14.06113233,-0.92792038,0.02335144,9.698631592
14.07110533,-0.617016907,0.025147705,9.808503113
14.08107733,-0.574804688,0.054486694,9.615704041
14.09105033,-1.340163116,0.058228912,9.794282684
14.10102233,-0.185913391,-0.010627899,9.870324554
14.11099433,-0.883163452,0.028590546,9.697434082
14.12096733,-0.894390106,0.026195526,9.798773346
14.13093933,-0.543220367,-0.004340973,9.721983032
14.14091233,-1.087338867,-0.003742218,9.733658752
14.15088433,-0.518521729,-0.007933502,9.760602722
14.16085733,-0.673150177,0.02335144,9.781858521
14.17082933,-0.770447845,-0.008532257,9.761949921
14.18080233,-1.014141083,-0.007933502,9.732311554
14.19077433,-0.555195465,0.022303619,9.756561127
14.20074733,-0.925225983,-0.008681946,9.706415405
14.21071933,-0.61072998,0.041613464,9.731263733
14.22069233,-0.229173431,0.050594788,9.870174866
14.23066433,-1.489253082,-0.007484436,9.627080383
14.24063633,-0.588725739,0.030835876,9.753567352
14.25060933,-0.932111664,0.009580078,9.792037354
14.26058133,-0.509241028,0.014220428,9.732311554
14.27055433,-0.522713013,0.03158432,9.791438599
14.28052633,-0.951870575,0.024249573,9.714348907
14.29049933,-0.90920929,0.018262024,9.770781555
14.30047133,-0.757275238,0.025896149,9.725276184
14.31044433,-0.660127258,0.022303619,9.79712677
14.32041633,-0.745599518,0.019609222,9.699829102
14.33038933,-0.715362396,-0.019010468,9.790839844
14.34036133,-0.627794495,0.038769379,9.720336456
14.35033433,-0.970431976,0.012274475,9.713750153
14.36030633,-0.696501617,0.015118561,9.775870972
14.37027833,-0.937949524,-0.011376343,9.749974823
14.38025133,-0.60025177,0.01871109,9.715396729
14.39022333,-0.696651306,0.025596771,9.732311554
14.40019633,-0.857267303,0.032332764,9.803713074
14.41016833,-0.396525421,0.002095642,9.831854553
14.42014133,-1.114133148,0.038170624,9.610464935
14.43011333,-0.870739288,0.02110611,9.845176849
14.44008633,-0.527053986,0.036374359,9.678273926
14.45005833,-0.932411041,-0.02574646,9.814340973
14.46003133,-0.628243561,0.033530273,9.732610931
14.47000333,-0.372874603,0.024698639,9.844278717
14.47997533,-1.282083893,-0.011526031,9.691446533
14.48994833,-0.640368347,0.02454895,9.749376068
14.49992033,-0.862656097,0.014819183,9.771529999
14.50989333,-0.730331268,0.026345215,9.689201202
14.51986533,-0.621806946,0.024848328,9.770931244
14.52983833,-0.689615936,0.019758911,9.731263733
14.53981033,-0.818048859,0.01751358,9.792336731
14.54978333,-0.919088745,0.036374359,9.673932953
14.55975533,-0.970581665,-0.006735992,9.792785797
14.56972833,-0.25387207,0.008681946,9.810299377
14.57970033,-1.059945831,0.024099884,9.69533844
14.58967233,-0.626596985,0.023650818,9.814041595
14.59964533,-0.624950409,0.036673737,9.783505096
14.60961733,-1.134790192,0.012424164,9.664352875
14.61959033,-0.521515503,0.025447083,9.869875488
14.62956233,-0.705183563,0.006286926,9.751172333
14.63953533,-1.091530151,0.024698639,9.760003967
14.64950733,-0.211360474,0.002095642,9.800120544
14.65948033,-0.99812439,0.031135254,9.724228363
14.66945233,-0.941991119,0.026794281,9.695188751
14.67942533,-0.299976196,0.022004242,9.838590546
14.68939733,-1.451082458,-0.021405487,9.651479645
14.69936933,-0.386196899,0.018411713,9.832752686
14.70934133,-0.585582275,0.020507355,9.762099609
14.71931333,-1.136736145,0.026045837,9.66255661
14.72928633,-0.526305542,0.027393036,9.820328522
14.73925833,-0.818497925,0.003293152,9.747579803
14.74923133,-0.857566681,0.040266266,9.730515289
14.75920333,-0.708177338,-0.008981323,9.749675446
14.76917633,-0.737815704,0.037571869,9.787696381
14.77914833,-0.799038391,0.024698639,9.700876923
14.78912133,-0.648002472,0.012723541,9.809101868
14.79909333,-0.792003021,0.02110611,9.737101593
14.80906633,-1.032103729,0.002095642,9.7409935
14.81903833,-0.453706512,0.033081207,9.763446808
14.82901033,-0.868344269,0.021854553,9.703122253
14.83898333,-0.661624146,0.025596771,9.848020935
14.84895533,-0.775537262,0.011226654,9.680219879
14.85892833,-1.071322174,0.038919067,9.710606689
14.86890033,-0.392483826,0.00583786,9.796827393
14.87887333,-1.056053925,0.02694397,9.62633194
14.88884533,-0.60489212,0.016166382,9.799671478
14.89881833,-0.769849091,0.02454895,9.715396729
14.90879033,-0.858464813,0.023201752,9.715546417
14.91876233,-0.57914566,-0.003442841,9.823471985
14.92873533,-0.896785126,0.022902374,9.671837311
14.93870733,-0.897234192,0.024249573,9.792935486
14.94868033,-0.534837799,0.026644592,9.694739685
14.95865233,-0.868044891,0.047601013,9.744136963
14.96862533,-0.627495117,0.011526031,9.783804474
14.97859733,-0.943637695,0.016765137,9.748627625
14.98857033,-0.640967102,0.025896149,9.740095367
14.99854233,-0.894689484,-0.008083191,9.738448792
15.00851433,-0.615969086,0.020657043,9.727371826
15.01848733,-0.774040375,0.018860779,9.768985291
15.02845933,-0.777333527,0.026494904,9.679321747
15.03843233,-0.788560181,0.037721558,9.792037354
15.04840433,-0.873733063,0.011526031,9.684411163
15.05837733,-0.632434845,0.02694397,9.790690155
15.06834933,-0.656534729,-0.019160156,9.800270233
15.07832233,-0.87403244,0.055684204,9.624835052
15.08829433,-0.76056839,0.019309845,9.811796265
15.09826733,-0.779429169,0.001646576,9.76434494
15.10823933,-0.73946228,0.022303619,9.730365601
15.11821133,-0.804127808,0.01287323,9.738299103
15.12818433,-0.766256561,0.023650818,9.786049805
15.13815633,-0.680035858,0,9.796378326
15.14812933,-0.691412201,0.035176849,9.683213654
15.15810133,-0.800684967,0.026644592,9.780511322
15.16807433,-0.759969635,0.020357666,9.737251282
15.17804633,-0.892444153,0.01751358,9.798623657
15.18801933,-0.744851074,0.027991791,9.645192719
15.19799133,-0.667162628,0.024399261,9.780511322
15.20796333,-0.566122742,0.010029144,9.785900116
15.21793633,-1.140927429,0.010029144,9.737700348
15.22790833,-0.303568726,0.064066772,9.753717041
15.23788133,-1.204395447,0.006735992,9.752220154
15.24785333,-0.64351181,0.017663269,9.7609021
15.25782633,-0.534538422,0.01871109,9.777068481
15.26779833,-1.097966766,0.03861969,9.691446533
15.27777133,-0.470771027,0.005538483,9.837991791
15.28774333,-0.862656097,0.026345215,9.730215912
15.29771633,-0.797092438,0.015867004,9.823172607
15.30768833,-0.561482391,0.030835876,9.700128479
15.31766033,-1.091530151,0.029638367,9.824519806
15.32763333,-0.495170288,0.01407074,9.72228241
15.33760533,-0.939446411,0.013621674,9.771230621
15.34757833,-0.564476166,0.039667511,9.758656769
15.35755033,-0.810414734,-0.003143463,9.779014435
15.36752333,-0.929117889,0.026644592,9.756112061
15.37749533,-0.663869476,0.030686188,9.796827393
15.38746733,-0.667911072,0.005538483,9.777068481
15.39744033,-0.676443329,0.013322296,9.78889389
15.40741233,-0.912203064,0.022004242,9.757159882
15.41738533,-0.781524811,0.007185059,9.724827118
15.42735733,-0.580492859,0.052540741,9.761650543
15.43733033,-0.877624969,0.005987549,9.82287323
15.44730233,-0.589474182,0.039966888,9.655970306
15.45727533,-0.994980927,0.00583786,9.920170898
15.46724733,-0.59561142,0.018561401,9.687854004
15.47722033,-0.831820221,0.02454895,9.817783813
15.48719233,-0.983155518,-0.003891907,9.648036804
15.49716433,-0.186362457,0.02574646,9.87780899
15.50713733,-1.069974976,0.009879456,9.666149139
15.51710933,-0.691861267,0.009131012,9.784702606
15.52708233,-0.701441345,0.031434631,9.727371826
15.53705433,-0.947529602,-0.006436615,9.760003967
15.54702733,-0.607586517,0.055684204,9.695488129
15.55699933,-0.903820496,-0.0199086,9.836195526
15.56697233,-0.362097015,0.034278717,9.7409935
15.57694433,-1.095272369,0.026045837,9.709708557
15.58691633,-0.580792236,-0.001496887,9.773925018
15.59688933,-0.916244659,0.105829926,9.670041046
15.60686133,-0.941242676,-0.011526031,9.774074707
15.61683433,-0.306113434,0.039068756,9.808353424
15.62680633,-0.852327576,0.019609222,9.701325989
15.63677933,-0.805774384,-0.021704865,9.798473969
15.64675133,-0.656235352,0.055534515,9.776619415
15.65672333,-0.966240692,-0.017363892,9.644144897
15.66669633,-0.821641388,0.03397934,9.774074707
15.67666833,-0.683179321,-0.007933502,9.67782486
15.68664133,-0.695304108,0.017812958,9.786947937
15.69661413,-0.424217834,0.007185059,9.830357666
15.70658712,-1.081950073,0.014519806,9.701026611
15.71655912,-0.850381622,-0.003293152,9.815388794
15.72653213,-0.490979004,0.027093658,9.731114044
15.73650413,-1.067879333,0.029189301,9.666747894
15.74647613,-0.550106049,-0.007484436,9.782606964
15.75644913,-0.714763641,0.045355682,9.739346924
15.76642113,-0.693657532,0.011526031,9.751022644
15.77639413,-0.881217499,0.037721558,9.737850037
15.78636613,-0.77808197,0.02454895,9.781708832
15.79633912,-0.549207916,0.039517822,9.767787781
15.80631112,-1.131047974,0.034129028,9.680818634
15.81628313,-0.44936554,0.022004242,9.789792023
15.82625613,-0.729732513,0.021854553,9.72931778
15.83622813,-1.04961731,0.006885681,9.716145172
15.84620113,-0.361348572,0.0398172,9.834249573
15.85617313,-0.931961975,0.003143463,9.697284393
15.86614613,-1.066532135,-0.011825409,9.79952179
15.87611813,-0.28785141,0.034129028,9.78664856
15.88609112,-0.96414505,0.020207977,9.701625366
15.89606313,-0.765807495,0.010927277,9.778565369
15.90603513,-0.565523987,0.020207977,9.803862762
15.91600813,-1.044827271,0.028440857,9.711504822
15.92598013,-0.556093597,-0.005388794,9.799970856
15.93595313,-0.718056793,0.02454895,9.753417664
15.94592513,-0.882564697,0.027542725,9.736353149
15.95589813,-0.747545471,0.013921051,9.782157898
15.96587013,-0.762963409,0.026644592,9.752968597
15.97584213,-0.699794769,0.027393036,9.755962372
15.98581513,-0.735720062,0.002095642,9.783654785
15.99578713,-0.889600067,0.028590546,9.685758362
16.00576013,-0.633332977,0.013471985,9.777517548
16.01573213,-0.809366913,0.011076965,9.763596497
16.02570513,-0.734971619,0.042062531,9.762848053
16.03567713,-0.701890411,0.026345215,9.786199493
16.04565013,-0.803978119,0.026345215,9.776619415
16.05562213,-0.780626678,0.018262024,9.758058014
16.06559413,-0.845591583,0.010029144,9.748477936
16.07556713,-0.653540955,0.017214203,9.777816925
16.08553913,-0.727936249,0.012573853,9.7502742
16.09551213,-0.76760376,0.01047821,9.743388519
16.10548413,-0.772393799,0.026494904,9.766590271
16.11545713,-0.81550415,0.0199086,9.768087158
16.12542913,-0.716709595,0.01047821,9.789043579
16.13540113,-0.818647614,0.028440857,9.736652527
16.14537413,-0.749940491,0.027243347,9.737850037
16.15534613,-0.643212433,0.033530273,9.693691864
16.16531913,-0.917142792,0.014370117,9.787846069
16.17529113,-0.502355347,0.023201752,9.773625641
16.18526413,-1.031355286,0.029338989,9.723479919
16.19523613,-0.702788544,0.020956421,9.770332489
16.20520813,-0.600401459,0.007484436,9.779912567
16.21518113,-1.019529877,0.025297394,9.711804199
16.22515313,-0.592767334,0.025297394,9.751022644
16.23512613,-0.661025391,0.021555176,9.744586029
16.24509813,-1.02027832,0.010627899,9.726174316
16.25507113,-0.586480408,0.019758911,9.758058014
16.26504313,-0.906365204,0.02335144,9.723330231
16.27501613,-0.739611969,0.025447083,9.760602722
16.28498813,-0.599802704,0.019010468,9.765243073
16.29496013,-0.813857574,0.02454895,9.762249298
16.30493313,-0.732277222,0.025896149,9.726623383
16.31490513,-0.884211273,0.021854553,9.741292877
16.32487813,-0.794847107,0.017663269,9.723479919
16.33485013,-0.667611694,0.024249573,9.761800232
16.34482313,-0.767903137,0.024698639,9.752968597
16.35479513,-0.771944733,0.013172607,9.722132721
16.36476713,-0.759819946,0.022902374,9.757159882
16.37474013,-0.742456055,0.020806732,9.753118286
16.38471213,-0.886157227,0.012723541,9.747430115
16.39468513,-0.597707062,0.020806732,9.782307587
16.40465713,-0.92792038,0.028440857,9.718839569
16.41463013,-0.79679306,0.028590546,9.741592255
16.42460213,-0.524958344,0.027692413,9.788594513
16.43457413,-0.963546295,0.024998016,9.724677429
16.44454713,-0.639320526,0.023201752,9.774673462
16.45451913,-0.840202789,0.020806732,9.718091125
16.46449213,-0.952619019,0.025147705,9.767638092
16.47446412,-0.268691254,0.019459534,9.824669495
16.48443713,-1.159339142,0.021405487,9.659712524
16.49440913,-0.671802979,0.026644592,9.770931244
16.50438113,-0.567919006,0.026644592,9.739496613
16.51435413,-1.163829803,-0.003143463,9.730066223
16.52432613,-0.333955536,0.019758911,9.783654785
16.53429913,-0.977766724,0.019609222,9.709708557
16.54427113,-0.827030182,-0.00119751,9.766889648
16.55424413,-0.616118774,0.035027161,9.777816925
16.56421612,-0.760718079,-0.001945953,9.740694122
16.57418812,-0.738863525,0.034877472,9.799821167
16.58416113,-0.873733063,0.008681946,9.721683655
16.59413313,-0.694855042,0.026345215,9.739496613
16.60410613,-0.760418701,0.015717316,9.731413422
16.61407813,-0.747545471,0.033530273,9.763746185
16.62405113,-0.608035583,0.048798523,9.749675446
16.63402313,-0.996777191,0.020507355,9.735005951
16.64399513,-0.72314621,0.027842102,9.793085175
16.65396812,-0.622256012,0.019309845,9.795779572
16.66394012,-1.055754547,0.002993774,9.655371552
16.67391313,-0.504001923,0.025896149,9.80296463
16.68388513,-0.724643097,0.023950195,9.732910309
16.69385796,-0.954415283,-0.002694397,9.80535965
16.70382996,-0.357606354,0.017962646,9.783205719
16.71380196,-1.314566345,-0.015118561,9.616751862
16.72377496,-0.67749115,0.027093658,9.878856812
16.73374696,-0.344433746,0.000149689,9.723928986
16.74371996,-1.471290436,-0.034578094,9.692045288
16.75369196,0.09834549,0.043110352,9.969867554
16.76366396,-1.265169067,0.020058289,9.512119446
16.77363696,-0.839454346,0.007933502,9.862091675
16.78360896,-0.285755768,0.037571869,9.858648834
16.79358196,-1.30693222,0.051343231,9.64968338
16.80355396,-0.784069519,-0.001347198,9.723928986
16.81352696,-0.138162689,0.107476501,9.723928986
16.82349896,-1.428928528,-0.12049942,9.884544983
16.83347096,-0.026045837,0.128881989,9.732461243
16.84344396,-1.341809692,-0.041314087,9.833800507
16.85341596,-0.753832397,-0.00583786,9.66719696
16.86338896,-0.281714172,0.03038681,9.798773346
16.87336096,-1.581012268,-0.010777588,9.695937195
16.88333396,-0.096249847,-0.012424164,9.752818909
16.89330596,-0.785865784,0.048648834,9.738897858
16.90327796,-1.215622101,-0.022153931,9.796528015
16.91325096,0.1579216,0.057630157,9.863588562
16.92322296,-1.860780487,-0.036673737,9.630822601
16.93319596,-0.214204559,0.062420197,9.701475677
16.94316796,-0.823138275,0.016316071,9.781858521
16.95314096,-1.043480072,0.008981323,9.682016144
16.96311296,0.18022522,0.093705139,9.805060272
16.97308496,-1.908082123,-0.022602997,9.701475677
16.98305796,-0.208965454,0.061522064,9.776918793
16.99302996,-0.652642822,0.025896149,9.796078949
17.00300296,-1.24496109,-0.002694397,9.762997742
17.01297496,-0.304915924,0.02110611,9.72228241
17.02294696,-1.038240967,0.015867004,9.693991241
17.03291996,-0.709823914,0.020657043,9.725575562
17.04289196,-0.62599823,0.013771362,9.742340698
17.05286496,-0.765657806,-0.008681946,9.84742218
17.06283696,-0.667611694,0.009580078,9.700577545
17.07280996,-0.936153259,0.01526825,9.803413696
17.08278196,-0.724942474,0.026045837,9.731114044
17.09275396,-0.798739014,0.024848328,9.738448792
17.10272696,-0.583935699,0.033230896,9.789941711
17.11269896,-0.961450653,0.044756927,9.65552124
17.12267196,-0.601299591,0.022902374,9.767638092
17.13264396,-0.789308624,0.032632141,9.780810699
17.14261596,-0.891396332,0.028291168,9.741592255
17.15258896,-0.515677643,0.025447083,9.772128754
17.16256096,-0.953068085,0.013022919,9.749076691
17.17253396,-0.626896362,0.010029144,9.745035095
17.18250596,-0.761316833,0.025896149,9.761800232
17.19247896,-0.868643646,0.004191284,9.745933228
17.20245096,-0.684975586,0.007634125,9.779463501
17.21242296,-0.849633179,0.017214203,9.763895874
17.22239596,-0.562530212,0.020806732,9.804910583
17.23236796,-0.781824188,0.032931519,9.751920776
17.24234096,-0.860710144,0.024099884,9.754315796
17.25231296,-0.781075745,0.020357666,9.756710815
17.26228596,-0.600850525,0.024698639,9.75386673
17.27225796,-0.820294189,0.016765137,9.75266922
17.28222996,-0.817001038,0.000449066,9.725575562
17.29220296,-0.668360138,0.021405487,9.800270233
17.30217496,-0.863105164,0.024848328,9.749076691
17.31214796,-0.624052277,0.002544708,9.809101868
17.32211996,-0.759819946,0.025297394,9.762099609
17.33209196,-0.987047424,0.02574646,9.697134705
17.34206496,-0.571511536,0.025297394,9.805060272
17.35203696,-0.808169403,0.022004242,9.720935211
17.36200996,-0.720900879,0.025297394,9.758656769
17.37198196,-0.641715546,0.014220428,9.793983307
17.38195496,-0.862805786,0.005239105,9.740843811
17.39192696,-0.718206482,0.006286926,9.784852295
17.40189896,-0.85771637,0.010178833,9.742789764
17.41187196,-0.779878235,0.002544708,9.743238831
17.42184396,-0.726439362,0.025596771,9.736802216
17.43181696,-0.584833832,0.017812958,9.773326263
17.44178896,-0.818348236,0.013921051,9.756860504
17.45176096,-0.826581116,0.01871109,9.750124512
17.46173396,-0.666264496,0.026345215,9.781559143
17.47170596,-0.836310883,0.020357666,9.738149414
17.48167896,-0.784219208,0.017214203,9.771080933
17.49165096,-0.727038116,0.026045837,9.750723267
17.50162296,-0.757574615,0.024998016,9.734257507
17.51159596,-0.668210449,0.010328522,9.774523773
17.52156796,-0.756676483,0.024399261,9.742041321
17.53154096,-0.822689209,0.01047821,9.747430115
17.54151296,-0.825682983,0.022004242,9.755662994
17.55148596,-0.660875702,0.024249573,9.744286652
17.56145796,-0.766705627,0.011975098,9.722581787
17.57142996,-0.771645355,0.020207977,9.75147171
17.58140296,-0.722697144,0.020357666,9.749675446
17.59137496,-0.839903412,0.024399261,9.745184784
17.60134796,-0.76056839,0.019309845,9.769134979
17.61131996,-0.743803253,0.027542725,9.768236847
17.62129196,-0.767753448,0.022004242,9.742789764
17.63126496,-0.685424652,0.026045837,9.769434357
17.64123696,-0.726139984,0.024099884,9.755962372
17.65120996,-0.811312866,0.021405487,9.741592255
17.66118196,-0.752784576,0.01526825,9.747280426
17.67115496,-0.715212708,0.023201752,9.75970459
17.68112696,-0.776285706,0.02110611,9.766440582
17.69109858,-0.775686951,0.012124786,9.744735718
17.70107158,-0.738115082,0.027542725,9.740694122
17.71104358,-0.781973877,0.022602997,9.746981049
17.72101658,-0.740210724,0.016914825,9.739047546
17.73098858,-0.748443604,0.023950195,9.738299103
17.74096058,-0.817150726,0.012124786,9.721384277
17.75093358,-0.738115082,0.003143463,9.744885406
17.76090558,-0.736468506,0.017962646,9.752369843
17.77087858,-0.803978119,0.010627899,9.743089142
17.78085058,-0.752784576,0.018860779,9.760602722
17.79082258,-0.750239868,0.023501129,9.751920776
17.80079558,-0.803079987,0.025147705,9.757608948
17.81076758,-0.736468506,0.013172607,9.756261749
17.82074058,-0.73362442,0.021854553,9.738748169
17.83071258,-0.761316833,0.020806732,9.757010193
17.84068558,-0.715362396,0.027842102,9.769434357
17.85065758,-0.753233643,0.023800507,9.765692139
17.86062958,-0.807570648,0.026045837,9.767488403
17.87060258,-0.749491425,0.025447083,9.76434494
17.88057458,-0.750838623,0.027991791,9.752220154
17.89054758,-0.75817337,0.019309845,9.767488403
17.90051958,-0.754580841,0.026195526,9.758357391
17.91049158,-0.781824188,0.021704865,9.736353149
17.92046458,-0.74649765,0.01167572,9.753118286
17.93043658,-0.733474731,0.013172607,9.746232605
17.94040958,-0.755628662,0.001496887,9.743538208
17.95038158,-0.776585083,0.015567627,9.74219101
17.96035358,-0.767454071,0.027842102,9.751621399
17.97032658,-0.77688446,0.022902374,9.756261749
17.98029858,-0.774040375,0.01751358,9.765093384
17.99027158,-0.720900879,0.019758911,9.76554245
18.00024358,-0.773142242,0.021555176,9.742340698
18.01021558,-0.736917572,0.027842102,9.767338715
18.02018858,-0.716260529,0.026345215,9.75850708
18.03016058,-0.76640625,0.027093658,9.757758636
18.04013358,-0.770148468,0.019758911,9.762698364
18.05010558,-0.787662048,0.024998016,9.749376068
18.06007758,-0.79679306,0.024249573,9.75386673
18.07005058,-0.754281464,0.026045837,9.762997742
18.08002258,-0.718356171,0.026045837,9.748627625
18.08999558,-0.743204498,0.027842102,9.743388519
18.09996758,-0.774040375,0.026794281,9.740245056
18.10994058,-0.759071503,0.028291168,9.755363617
18.11991258,-0.793948975,0.012723541,9.745184784
18.12988458,-0.784219208,0.026195526,9.745783539
18.13985758,-0.756526794,0.026644592,9.736951904
18.14982958,-0.749042358,0.020657043,9.739346924
18.15980258,-0.68916687,0.011376343,9.770332489
18.16977458,-0.768950958,0.009729767,9.759554901
18.17974658,-0.815354462,0.019459534,9.749675446
18.18971958,-0.768501892,0.02454895,9.742041321
18.19969158,-0.740360413,0.020657043,9.74802887
18.20966458,-0.694256287,0.025297394,9.761201477
18.21963658,-0.731079712,0.02110611,9.770332489
18.22960858,-0.785716095,0.021704865,9.751322021
18.23958158,-0.826730804,0.037122803,9.746232605
18.24955358,-0.753682709,0.026794281,9.761500854
18.25952658,-0.745000763,0.021704865,9.730814667
18.26949858,-0.736767883,0.016016693,9.735305328
18.27947058,-0.717757416,0.01751358,9.741292877
18.28944358,-0.778531036,0.01167572,9.732161865
18.29941558,-0.846489716,0.028440857,9.737251282
18.30938858,-0.765657806,0.010029144,9.742789764
18.31936058,-0.740360413,0.017812958,9.745783539
18.32933258,-0.737067261,0.014220428,9.757159882
18.33930558,-0.725241852,0.019459534,9.772128754
18.34927758,-0.770148468,0.027842102,9.733359375
18.35925058,-0.78511734,0.023201752,9.730964355
18.36922258,-0.768202515,0.022602997,9.760752411
18.37919458,-0.746048584,0.020357666,9.755812683
18.38916758,-0.738115082,0.014370117,9.760602722
18.39913958,-0.710422668,0.025447083,9.770781555
18.40911258,-0.790057068,0.015567627,9.739047546
18.41908458,-0.786763916,0.022153931,9.744136963
18.42905658,-0.758622437,0.02110611,9.752369843
18.43902958,-0.765508118,0.026345215,9.747879181
18.44900158,-0.732875977,0.028141479,9.750423889
18.45897458,-0.725840607,0.027991791,9.753118286
18.46894658,-0.766256561,0.023052063,9.759554901
18.47891858,-0.789608002,0.025147705,9.750124512
18.48889158,-0.758622437,0.027093658,9.74443634
18.49886358,-0.759670258,0.015567627,9.759255524
18.50883658,-0.752634888,0.017812958,9.764045563
18.51880858,-0.762963409,0.01407074,9.76314743
18.52878058,-0.795894928,0.023052063,9.746681671
18.53875358,-0.759520569,0.026045837,9.754016418
18.54872558,-0.699046326,0.021854553,9.774972839
18.55869858,-0.744102631,0.020058289,9.758656769
18.56867058,-0.768352203,0.013471985,9.752070465
18.57864258,-0.781375122,0.022303619,9.761201477
18.58861558,-0.793200531,0.023501129,9.738299103
18.59858758,-0.751587067,0.025596771,9.752818909
18.60856058,-0.71491333,0.012723541,9.758207703
18.61853258,-0.757125549,0.015717316,9.764045563
18.62850458,-0.764909363,0.027991791,9.742490387
18.63847758,-0.766705627,0.028141479,9.7502742
18.64844958,-0.764759674,0.016914825,9.763297119
18.65842258,-0.743354187,0.023201752,9.766141205
18.66839458,-0.746647339,0.022303619,9.744586029
18.67836658,-0.753233643,0.02110611,9.741292877
18.68833958,-0.753083954,0.010627899,9.762249298
18.69831196,-0.769250336,0.010777588,9.780361633
18.70828496,-0.765508118,0.020357666,9.757608948
18.71825696,-0.742456055,0.015867004,9.761800232
18.72822896,-0.738264771,0.024249573,9.75730957
18.73820196,-0.797541504,0.02335144,9.752818909
18.74817396,-0.782722321,0.022602997,9.74563385
18.75814696,-0.716260529,0.0199086,9.741442566
18.76811896,-0.743354187,0.027243347,9.755812683
18.77809096,-0.733175354,0.021405487,9.756710815
18.78806396,-0.72314621,0.020507355,9.759405212
18.79803596,-0.787212982,0.026345215,9.732910309
18.80800896,-0.765807495,0.021405487,9.765841827
18.81798096,-0.752934265,0.026195526,9.755662994
18.82795296,-0.767454071,0.02454895,9.74443634
18.83792596,-0.712667999,0.020507355,9.753717041
18.84789796,-0.72778656,0.02110611,9.758207703
18.85787096,-0.794697418,0.028590546,9.744885406
18.86784296,-0.747395782,0.023201752,9.764195251
18.87781496,-0.738115082,0.020058289,9.751621399
18.88778796,-0.753682709,0.022004242,9.755662994
18.89775996,-0.733774109,0.025596771,9.749525757
18.90773196,-0.74305481,0.02335144,9.739047546
18.91770496,-0.761167145,0.019459534,9.76314743
18.92767696,-0.758023682,0.020357666,9.765991516
18.93764996,-0.77688446,0.026644592,9.747430115
18.94762196,-0.785267029,0.011226654,9.756411438
18.95759396,-0.726888428,0.025297394,9.760153656
18.96756696,-0.740210724,0.020058289,9.754315796
18.97753896,-0.776585083,0.02454895,9.752519531
18.98751196,-0.743354187,0.024249573,9.767189026
18.99748396,-0.748293915,0.019309845,9.742490387
19.00745596,-0.777183838,0.02694397,9.759255524
19.01742896,-0.738863525,0.027692413,9.764494629
19.02740096,-0.731079712,0.028291168,9.764494629
19.03737396,-0.76880127,0.024998016,9.766590271
19.04734596,-0.742905121,0.027393036,9.770931244
19.05731796,-0.771795044,0.015417938,9.768236847
19.06729096,-0.778381348,0.025147705,9.740394745
19.07726296,-0.725391541,0.020956421,9.750872955
19.08723596,-0.731828156,0.02335144,9.745334473
19.09720796,-0.760867767,0.022303619,9.749076691
19.10717996,-0.748293915,0.024099884,9.763446808
19.11715296,-0.770597534,0.021704865,9.742340698
19.12712496,-0.759520569,0.028291168,9.76554245
19.13709696,-0.742905121,0.022004242,9.755363617
19.14706996,-0.729433136,0.025447083,9.747130737
19.15704196,-0.729732513,0.021255798,9.743238831
19.16701496,-0.768651581,0.025596771,9.756261749
19.17698696,-0.789458313,0.027243347,9.761800232
19.18695896,-0.758323059,0.022004242,9.774823151
19.19693196,-0.719403992,0.020956421,9.750872955
19.20690396,-0.775537262,0.026195526,9.745933228
19.21687696,-0.771196289,0.014819183,9.745933228
19.22684896,-0.74889267,0.015118561,9.743837585
19.23682096,-0.763113098,0.017064514,9.754465485
19.24679396,-0.748144226,0.017812958,9.756561127
19.25676596,-0.769100647,0.020657043,9.739945679
19.26673896,-0.783620453,0.019309845,9.745184784
19.27671096,-0.753083954,0.022153931,9.755962372
19.28668296,-0.74889267,0.027093658,9.743837585
19.29665596,-0.775686951,0.027542725,9.758207703
19.30662796,-0.765358429,0.025896149,9.764045563
19.31659996,-0.733025665,0.021854553,9.762548676
19.32657296,-0.753083954,0.028291168,9.766590271
19.33654496,-0.768352203,0.013322296,9.75386673
19.34651796,-0.759819946,0.02335144,9.743687897
19.35648996,-0.763711853,0.027243347,9.756860504
19.36646196,-0.736917572,0.016465759,9.751322021
19.37643496,-0.758472748,0.010777588,9.754166107
19.38640696,-0.765059052,0.011226654,9.752818909
19.39637996,-0.745599518,0.020657043,9.766141205
19.40635196,-0.777632904,0.024099884,9.764943695
19.41632396,-0.775986328,0.021704865,9.759854279
19.42629696,-0.755628662,0.027991791,9.75730957
19.43626896,-0.749192047,0.024848328,9.751771088
19.44624196,-0.760119324,0.026345215,9.741442566
19.45621396,-0.758772125,0.020357666,9.7701828
19.46618596,-0.758921814,0.028440857,9.763746185
19.47615896,-0.778231659,0.025297394,9.752519531
19.48613096,-0.753832397,0.022902374,9.749974823
19.49610296,-0.770747223,0.017214203,9.758656769
19.50607596,-0.764160919,0.028141479,9.762099609
19.51604796,-0.742306366,0.025147705,9.775870972
19.52602096,-0.752784576,0.013022919,9.739945679
19.53599296,-0.744851074,0.025147705,9.753118286
19.54596496,-0.775088196,0.022453308,9.751621399
19.55593796,-0.775088196,0.018262024,9.756411438
19.56590996,-0.769849091,0.024249573,9.747729492
19.57588296,-0.752634888,0.011975098,9.754615173
19.58585496,-0.778830414,0.02574646,9.746981049
19.59582696,-0.754281464,0.021704865,9.764195251
19.60579996,-0.744102631,0.021405487,9.751621399
19.61577196,-0.765508118,0.009729767,9.740095367
19.62574396,-0.769400024,0.011226654,9.749376068
19.63571696,-0.76520874,0.025596771,9.749525757
19.64568896,-0.757873993,0.024249573,9.741592255
19.65566196,-0.761017456,0.017363892,9.761949921
19.66563396,-0.761167145,0.016765137,9.757608948
19.67560596,-0.757873993,0.018561401,9.751022644
19.68557896,-0.756526794,0.018262024,9.754016418
19.69555096,-0.742905121,0.025596771,9.75147171
19.70552396,-0.74889267,0.025896149,9.753118286
19.71549596,-0.75233551,0.026794281,9.750124512
19.72546796,-0.757724304,0.016316071,9.754166107
19.73544096,-0.766855316,0.025297394,9.747280426
19.74541296,-0.769849091,0.022602997,9.75386673
19.75538496,-0.751138,0.02574646,9.756860504
19.76535796,-0.753682709,0.016465759,9.73979599
19.77532996,-0.77808197,0.013771362,9.75506424
19.78530296,-0.758323059,0.02335144,9.751022644
19.79527496,-0.769849091,0.020507355,9.758207703
19.80524696,-0.772992554,0.026345215,9.758357391
19.81521996,-0.747994537,0.022453308,9.763297119
19.82519196,-0.770447845,0.023501129,9.767189026
19.83516496,-0.748443604,0.026494904,9.758656769
19.84513696,-0.759819946,0.020956421,9.765392761
19.85510896,-0.772094421,0.026794281,9.748627625
19.86508196,-0.756526794,0.023950195,9.73979599
19.87505396,-0.773740997,0.0199086,9.763596497
19.88502596,-0.758921814,0.014220428,9.745933228
19.89499896,-0.75592804,0.011975098,9.764195251
19.90497096,-0.745749207,0.022752686,9.767488403
19.91494396,-0.769998779,0.020357666,9.75730957
19.92491596,-0.742755432,0.026045837,9.752070465
19.93488796,-0.76056839,0.023201752,9.76434494
19.94486096,-0.753383331,0.023052063,9.750124512
19.95483296,-0.73946228,0.027542725,9.762099609
19.96480496,-0.754131775,0.021555176,9.774523773
19.97477796,-0.75937088,0.009580078,9.746531982
19.98474996,-0.753383331,0.020956421,9.760003967
19.99472296,-0.770597534,0.019609222,9.76554245
20.00469496,-0.771196289,0.021405487,9.765841827
20.01466696,-0.755029907,0.022004242,9.764644318
20.02463996,-0.76640625,0.026644592,9.760752411
20.03461196,-0.765657806,0.026794281,9.770332489
20.04458496,-0.75353302,0.026494904,9.759854279
20.05455696,-0.765508118,0.027542725,9.757159882
20.06452896,-0.752784576,0.010178833,9.777068481
20.07450196,-0.737216949,0.010029144,9.760602722
20.08447396,-0.766106873,0.023800507,9.766290894
20.09444596,-0.783321075,0.038020935,9.753717041
20.10441896,-0.755029907,0.020207977,9.754465485
20.11439096,-0.746647339,0.019160156,9.75506424
20.12436396,-0.754131775,0.009580078,9.767638092
20.13433596,-0.7617659,0.023950195,9.767638092
20.14430796,-0.757125549,0.024698639,9.755363617
20.15428096,-0.774190063,0.010029144,9.741442566
20.16425296,-0.75353302,0.016615448,9.755812683
20.17422496,-0.763113098,0.014370117,9.756112061
20.18419796,-0.739013214,0.027991791,9.730215912
20.19416996,-0.72778656,0.020507355,9.745783539
20.20414296,-0.75817337,0.027692413,9.7502742
20.21411496,-0.768501892,0.02335144,9.745035095
20.22408696,-0.760718079,0.018262024,9.750423889
20.23405996,-0.736767883,0.016166382,9.761650543
20.24403196,-0.736169128,0.026345215,9.7609021
20.25400396,-0.760867767,0.019309845,9.752818909
20.26397696,-0.73482193,0.020207977,9.760003967
20.27394896,-0.753682709,0.021704865,9.750872955
20.28392196,-0.777483215,0.014669495,9.755662994
20.29389396,-0.76056839,0.024399261,9.752519531
20.30386596,-0.736767883,0.017363892,9.758656769
20.31383896,-0.743952942,0.020058289,9.756860504
20.32381096,-0.747994537,0.025447083,9.759405212
20.33378296,-0.78047699,0.026195526,9.742340698
20.34375596,-0.768950958,0.026045837,9.754016418
20.35372796,-0.724493408,0.024399261,9.755812683
20.36370096,-0.752784576,0.024698639,9.750124512
20.37367296,-0.773740997,0.021704865,9.745334473
20.38364496,-0.753383331,0.009879456,9.745933228
20.39361796,-0.744851074,0.017214203,9.742041321
20.40358996,-0.779878235,0.021854553,9.752070465
20.41356196,-0.754431152,0.026345215,9.75266922
20.42353496,-0.718356171,0.010627899,9.75386673
20.43350696,-0.776585083,0.022004242,9.752070465
20.44347996,-0.763861542,0.025896149,9.75730957
20.45345196,-0.751437378,0.022453308,9.747729492
20.46342396,-0.746797028,0.007334747,9.755363617
20.47339696,-0.761167145,0.026644592,9.773925018
20.48336896,-0.749790802,0.028440857,9.758207703
20.49334096,-0.769849091,0.013771362,9.772727509
20.50331396,-0.779129791,0.020357666,9.770033112
20.51328596,-0.77344162,0.024848328,9.765692139
20.52325896,-0.750389557,0.011376343,9.777068481
20.53323096,-0.742905121,0.025896149,9.749974823
20.54320296,-0.754131775,0.024698639,9.755662994
20.55317596,-0.755179596,0.01526825,9.754465485
20.56314796,-0.754580841,0.025447083,9.744136963
20.57311996,-0.764310608,0.027842102,9.750423889
20.58309296,-0.741707611,0.023800507,9.75506424
20.59306496,-0.749641113,0.028440857,9.75266922
20.60303696,-0.768501892,0.021704865,9.747430115
20.61300996,-0.75817337,0.025896149,9.753567352
20.62298196,-0.771944733,0.028291168,9.754764862
20.63295496,-0.750688934,0.020357666,9.767189026
20.64292696,-0.72658905,0.023201752,9.760153656
20.65289896,-0.757125549,0.024099884,9.749525757
20.66287196,-0.762514343,0.02574646,9.743837585
20.67284396,-0.752934265,0.010328522,9.737101593
20.68281596,-0.758472748,0.0199086,9.756411438
20.69278896,-0.743503876,0.01871109,9.762848053
20.70276058,-0.753682709,0.020207977,9.744586029
20.71273358,-0.769849091,0.027243347,9.764045563
20.72270558,-0.76640625,0.023201752,9.7502742
20.73267758,-0.763262787,0.025896149,9.747280426
20.74265058,-0.780327301,0.024099884,9.758058014
20.75262258,-0.75937088,0.019309845,9.755363617
20.76259458,-0.759969635,0.022752686,9.754914551
20.77256758,-0.757275238,0.019609222,9.756112061
20.78253958,-0.747844849,0.019160156,9.76554245
20.79251258,-0.756676483,0.026794281,9.752818909
20.80248458,-0.750988312,0.014220428,9.766290894
20.81245658,-0.760119324,0.016765137,9.761351166
20.82242958,-0.786763916,0.019309845,9.770631866
20.83240158,-0.74305481,0.011076965,9.745334473
20.84237358,-0.766106873,0.024249573,9.751771088
20.85234658,-0.7710466,0.024399261,9.755662994
20.86231858,-0.750389557,0.021255798,9.752519531
20.87229058,-0.746797028,0.025447083,9.754914551
20.88226358,-0.766555939,0.025447083,9.749525757
20.89223558,-0.763861542,0.01526825,9.767488403
20.90220858,-0.747844849,0.027842102,9.762848053
20.91218058,-0.744851074,0.021255798,9.75386673
20.92215258,-0.76401123,0.023950195,9.752519531
20.93212558,-0.745000763,0.026345215,9.752070465
20.94209758,-0.762813721,0.013621674,9.741592255
20.95206958,-0.746048584,0.023501129,9.733808441
20.96204258,-0.771944733,0.010777588,9.749974823
20.97201458,-0.770447845,0.033081207,9.739945679
20.98198758,-0.798888702,0.026644592,9.760153656
20.99195958,-0.744851074,0.031734009,9.753118286
21.00193158,-0.751736755,0.027393036,9.745484161
21.01190458,-0.778830414,0.04326004,9.751621399
21.02187658,-0.727636871,0.034877472,9.749974823
21.03184858,-0.784967651,0.035625916,9.743687897
21.04182158,-0.74530014,0.038020935,9.756112061
21.05179358,-0.756377106,0.045505371,9.74802887
21.06176558,-0.767005005,0.050894165,9.742939453
21.07173858,-0.775686951,0.058079224,9.754166107
21.08171058,-0.778381348,0.056881714,9.764943695
21.09168358,-0.74649765,0.076191559,9.753267975
21.10165558,-0.752036133,0.057630157,9.756261749
21.11162758,-0.794996796,0.063468018,9.748477936
21.12160058,-0.738564148,0.064964905,9.768835602
21.13157258,-0.762664032,0.050145721,9.766290894
21.14154458,-0.749641113,0.060923309,9.769883423
21.15151758,-0.769549713,0.064216461,9.7609021
21.16148958,-0.777632904,0.058228912,9.734257507
21.17146158,-0.757574615,0.055684204,9.770931244
21.18143458,-0.720451813,0.049397278,9.767937469
21.19140658,-0.777932281,0.058977356,9.75850708
21.20137958,-0.794996796,0.061671753,9.769584045
21.21135158,-0.724643097,0.060773621,9.76673996
21.22132358,-0.764460297,0.062420197,9.745184784
21.23129658,-0.756227417,0.051642609,9.759854279
21.24126858,-0.763861542,0.046403503,9.780810699
21.25124058,-0.757724304,0.045804749,9.762398987
21.26121358,-0.736767883,0.062719574,9.761500854
21.27118558,-0.786165161,0.071551208,9.762997742
21.28115758,-0.785416718,0.089214478,9.766440582
21.29113058,-0.752485199,0.077089691,9.750423889
21.30110258,-0.723744965,0.099692688,9.748927002
21.31107558,-0.705632629,0.093854828,9.771829376
21.32104758,-0.818497925,0.109572144,9.751322021
21.33101958,-0.767903137,0.106578369,9.73859848
21.34099258,-0.743354187,0.092807007,9.747879181
21.35096458,-0.762214966,0.111518097,9.743538208
21.36093658,-0.757873993,0.11466156,9.756710815
21.37090958,-0.731079712,0.103434906,9.746981049
21.38088158,-0.752934265,0.105380859,9.71868988
21.39085358,-0.756826172,0.106877747,9.756261749
21.40082658,-0.705183563,0.118254089,9.750573578
21.41079858,-0.772393799,0.115110626,9.73276062
21.42077158,-0.76401123,0.119152222,9.704020386
21.43074358,-0.733025665,0.114960938,9.739945679
21.44071558,-0.733325043,0.114811249,9.739346924
21.45068858,-0.744701385,0.130378876,9.747579803
21.46066058,-0.743803253,0.135917358,9.76314743
21.47063258,-0.780327301,0.130678253,9.743687897
21.48060558,-0.775986328,0.126187592,9.764494629
21.49057758,-0.716859283,0.15208374,9.738748169
21.50054958,-0.745150452,0.153880005,9.750124512
21.51052258,-0.75353302,0.169447632,9.761500854
21.52049458,-0.75473053,0.164208527,9.757159882
21.53046658,-0.744102631,0.182769928,9.742640076
21.54043958,-0.734971619,0.197140045,9.758656769
21.55041158,-0.764759674,0.206869812,9.766440582
21.56038458,-0.757424927,0.216898956,9.761949921
21.57035658,-0.735720062,0.214204559,9.789792023
21.58032858,-0.765957184,0.248333588,9.751920776
21.59030158,-0.771345978,0.250129852,9.771829376
21.60027358,-0.768501892,0.255668335,9.771529999
21.61024558,-0.778680725,0.258662109,9.762099609
21.62021858,-0.753832397,0.270637207,9.761500854
21.63019058,-0.736618195,0.275277557,9.773326263
21.64016258,-0.778980103,0.28545639,9.778265991
21.65013558,-0.77224411,0.276624756,9.771230621
21.66010758,-0.745449829,0.305963745,9.777068481
21.67007958,-0.767154694,0.306861877,9.768386536
21.68005258,-0.786614227,0.304616547,9.775870972
21.69002458,-0.728235626,0.302221527,9.778715057
21.69999796,-0.749192047,0.301772461,9.753417664
21.70996996,-0.774190063,0.31479538,9.776769104
21.71994196,-0.784668274,0.315843201,9.78664856
21.72991496,-0.733025665,0.321531372,9.77602066
21.73988696,-0.771345978,0.317489777,9.756261749
21.74985896,-0.730780334,0.331261139,9.774673462
21.75983196,-0.756676483,0.339943085,9.743388519
21.76980396,-0.768651581,0.320333862,9.776320038
21.77977596,-0.73482193,0.351169739,9.747579803
21.78974896,-0.787063293,0.342637482,9.74802887
21.79972096,-0.722846832,0.348625031,9.757159882
21.80969296,-0.74530014,0.349523163,9.754615173
21.81966596,-0.781824188,0.353714447,9.766290894
21.82963796,-0.722846832,0.359851685,9.731263733
21.83960996,-0.775237885,0.361797638,9.743687897
21.84958296,-0.724643097,0.349074097,9.756710815
21.85955496,-0.727337494,0.338296509,9.742340698
21.86952796,-0.809815979,0.342637482,9.726623383
21.87949996,-0.684227142,0.340392151,9.765243073
21.88947196,-0.792901154,0.355959778,9.734257507
21.89944496,-0.776734772,0.346230011,9.737251282
21.90941696,-0.722098389,0.352367249,9.750573578
21.91938896,-0.751138,0.365390167,9.726324005
21.92936196,-0.735420685,0.380359039,9.732161865
21.93933396,-0.767304382,0.381257172,9.735305328
21.94930596,-0.776734772,0.397573242,9.720336456
21.95927896,-0.724343719,0.392633514,9.754016418
21.96925096,-0.744102631,0.401614838,9.721983032
21.97922296,-0.770597534,0.405506744,9.717192993
21.98919596,-0.769400024,0.413440247,9.744586029
21.99916796,-0.744851074,0.423918457,9.722132721
22.00914096,-0.800684967,0.427361298,9.730066223
22.01911296,-0.741707611,0.424517212,9.73859848
22.02908496,-0.763562164,0.438288574,9.757459259
22.03905796,-0.747994537,0.448617096,9.726473694
22.04902996,-0.724792786,0.456550598,9.747130737
22.05900196,-0.783770142,0.464035034,9.747579803
22.06897496,-0.775986328,0.45864624,9.749675446
22.07894696,-0.742905121,0.468525696,9.747280426
22.08891896,-0.802780609,0.461190948,9.764644318
22.09889196,-0.720451813,0.473615112,9.769733734
22.10886396,-0.796643372,0.473615112,9.722881165
22.11883596,-0.772543488,0.462538147,9.769584045
22.12880896,-0.714464264,0.468825073,9.754016418
22.13878096,-0.816551971,0.460442505,9.794282684
22.14875296,-0.74305481,0.480500793,9.778116302
22.15872596,-0.77344162,0.49023056,9.760003967
22.16869796,-0.798739014,0.49846344,9.737550659
22.17867096,-0.728085938,0.495319977,9.795629883
22.18864296,-0.728085938,0.511935425,9.787247314
22.19861496,-0.770597534,0.513282623,9.771529999
22.20858796,-0.754281464,0.512085114,9.768685913
22.21855996,-0.773291931,0.492775269,9.751771088
22.22853196,-0.764909363,0.505349121,9.806257782
22.23850496,-0.724493408,0.511486359,9.771529999
22.24847696,-0.792452087,0.48319519,9.768685913
22.25844896,-0.784069519,0.49142807,9.742789764
22.26842196,-0.734971619,0.490380249,9.779164124
22.27839396,-0.748293915,0.492026825,9.750573578
22.28836596,-0.79215271,0.500559082,9.7609021
22.29833896,-0.765657806,0.501756592,9.744586029
22.30831096,-0.770896912,0.489931183,9.742041321
22.31828296,-0.763562164,0.497415619,9.766440582
22.32825596,-0.75592804,0.465082855,9.76434494
22.33822796,-0.756077728,0.476908264,9.767189026
22.34819996,-0.781225433,0.450563049,9.742340698
22.35817296,-0.742605743,0.464783478,9.765392761
22.36814496,-0.730331268,0.466280365,9.733808441
22.37811696,-0.841400299,0.45280838,9.741442566
22.38808996,-0.730930023,0.440982971,9.734407196
22.39806196,-0.774040375,0.44233017,9.750423889
22.40803496,-0.72898407,0.449215851,9.740694122
22.41800696,-0.769549713,0.426762543,9.760752411
22.42797896,-0.772094421,0.427810364,9.743538208
22.43795196,-0.779728546,0.419128418,9.756411438
22.44792396,-0.787063293,0.427510986,9.74563385
22.45789596,-0.768202515,0.424816589,9.740544434
22.46786896,-0.777333527,0.42002655,9.744286652
22.47784096,-0.762214966,0.419577484,9.718390503
22.48781296,-0.724493408,0.394729156,9.739945679
22.49778596,-0.742605743,0.400267639,9.741442566
22.50775796,-0.806522827,0.388292542,9.73740097
22.51772996,-0.764609985,0.38140686,9.738897858
22.52770296,-0.802331543,0.381257172,9.74802887
22.53767496,-0.767454071,0.379760284,9.751920776
22.54764696,-0.714314575,0.379760284,9.747579803
22.55761996,-0.793649597,0.389190674,9.730814667
22.56759196,-0.742755432,0.38140686,9.749226379
22.57756396,-0.761915588,0.388142853,9.737251282
22.58753696,-0.785865784,0.3556604,9.730814667
22.59750896,-0.774788818,0.354762268,9.754914551
22.60748096,-0.788260803,0.354013824,9.749974823
22.61745396,-0.754131775,0.346230011,9.755363617
22.62742596,-0.729133759,0.321231995,9.752369843
22.63739796,-0.792901154,0.33934433,9.748777313
22.64737096,-0.800984344,0.348924408,9.750723267
22.65734296,-0.789009247,0.344284058,9.760003967
22.66731596,-0.780327301,0.371377716,9.71988739
22.67728796,-0.763861542,0.374072113,9.72228241
22.68725996,-0.744102631,0.382754059,9.743089142
22.69723308,-0.767304382,0.376467133,9.732610931
22.70720508,-0.756077728,0.376916199,9.752519531
22.71717708,-0.758472748,0.366138611,9.751621399
22.72715008,-0.81325882,0.367336121,9.732012177
22.73712208,-0.786913605,0.368683319,9.745933228
22.74709408,-0.758023682,0.35805542,9.740694122
22.75706708,-0.74649765,0.358953552,9.743089142
22.76703908,-0.805475006,0.32766861,9.729916534
22.77701108,-0.80502594,0.329165497,9.741592255
22.78698408,-0.730331268,0.308658142,9.759554901
22.79695608,-0.716410217,0.313897247,9.778265991
22.80692808,-0.74649765,0.326620789,9.760752411
22.81690108,-0.779728546,0.341739349,9.772128754
22.82687308,-0.796343994,0.341889038,9.746382294
22.83684508,-0.762364655,0.343385925,9.738448792
22.84681808,-0.709524536,0.35221756,9.73979599
22.85679008,-0.802181854,0.3556604,9.711804199
22.86676208,-0.72898407,0.367785187,9.752070465
22.87673508,-0.717008972,0.381855927,9.776918793
22.88670708,-0.783171387,0.368084564,9.740095367
22.89667908,-0.775088196,0.376018066,9.745334473
22.90665208,-0.780027924,0.376916199,9.721384277
22.91662408,-0.663121033,0.376467133,9.749675446
22.92659608,-0.686771851,0.37916153,9.743089142
22.93656908,-0.767903137,0.379311218,9.719288635
22.94654108,-0.755778351,0.372275848,9.744136963
22.95651308,-0.739761658,0.3556604,9.794582062
22.96648608,-0.749042358,0.354762268,9.809550934
22.97645808,-0.798289948,0.388891296,9.815089417
22.98643008,-0.873583374,0.376167755,9.784702606
22.99640308,-0.796044617,0.403411102,9.780211945
23.00637508,-0.745000763,0.438587952,9.767189026
23.01634808,-0.73601944,0.440833282,9.746981049
23.02632008,-0.726439362,0.469274139,9.754615173
23.03629208,-0.708476715,0.468525696,9.754914551
23.04626508,-0.685873718,0.450862427,9.790989532
23.05623708,-0.776734772,0.4352948,9.789941711
23.06620908,-0.826281738,0.427810364,9.777966614
23.07618208,-0.822988586,0.385747833,9.787097626
23.08615408,-0.718805237,0.381257172,9.779164124
23.09612608,-0.683478699,0.391885071,9.766889648
23.10609908,-0.77224411,0.376616821,9.775272217
23.11607108,-0.805475006,0.399968262,9.78545105
23.12604308,-0.748443604,0.413140869,9.803563385
23.13601608,-0.8108638,0.422271881,9.781259766
23.14598808,-0.789458313,0.415835266,9.761500854
23.15596008,-0.800984344,0.408650208,9.761201477
23.16593308,-0.723445587,0.403860168,9.773326263
23.17590508,-0.656983795,0.388741608,9.771679688
23.18587708,-0.743503876,0.384700012,9.768685913
23.19585008,-0.794248352,0.384400635,9.774972839
23.20582208,-0.775088196,0.36853363,9.772727509
23.21579408,-0.778231659,0.387693787,9.762398987
23.22576708,-0.769549713,0.409847717,9.737999725
23.23573908,-0.742605743,0.410596161,9.743687897
23.24571108,-0.723295898,0.406853943,9.734257507
23.25568408,-0.707279205,0.418679352,9.741891632
23.26565608,-0.783770142,0.414787445,9.726773071
23.27562808,-0.743653564,0.416284332,9.735904083
23.28560108,-0.722547455,0.429906006,9.747280426
23.29557308,-0.757125549,0.417332153,9.745184784
23.30554508,-0.751138,0.416733398,9.754465485
23.31551808,-0.767005005,0.419727173,9.752818909
23.32549008,-0.777483215,0.426912231,9.735455017
23.33546208,-0.740061035,0.424367523,9.735604706
23.34543508,-0.78975769,0.451012115,9.709109802
23.35540708,-0.762065277,0.447419586,9.718540192
23.36537908,-0.699794769,0.444276123,9.724228363
23.37535208,-0.678239594,0.440533905,9.729617157
23.38532408,-0.701890411,0.435444489,9.73276062
23.39529608,-0.775237885,0.443677368,9.724078674
23.40526908,-0.804726563,0.445623322,9.735754395
23.41524108,-0.770298157,0.432750092,9.746082916
23.42521308,-0.792751465,0.443078613,9.736951904
23.43518608,-0.747246094,0.455053711,9.734407196
23.44515808,-0.733474731,0.458047485,9.731862488
23.45513008,-0.727636871,0.452209625,9.741741943
23.46510308,-0.733474731,0.454454956,9.742939453
23.47507508,-0.770298157,0.446521454,9.73395813
23.48504708,-0.766855316,0.453856201,9.725276184
23.49502008,-0.774938507,0.445024567,9.752070465
23.50499208,-0.72075119,0.440982971,9.757459259
23.51496408,-0.738863525,0.444425812,9.763297119
23.52493708,-0.765657806,0.418529663,9.773176575
23.53490908,-0.743803253,0.433947601,9.765392761
23.54488108,-0.76520874,0.425565033,9.776469727
23.55485408,-0.775237885,0.433199158,9.770332489
23.56482608,-0.746048584,0.445024567,9.767937469
23.57479808,-0.71491333,0.414637756,9.773176575
23.58477108,-0.742755432,0.422271881,9.776320038
23.59474308,-0.742605743,0.420475616,9.777667236
23.60471508,-0.77927948,0.437540131,9.76314743
23.61468808,-0.785416718,0.425265656,9.793983307
23.62466008,-0.752784576,0.409248962,9.804910583
23.63463208,-0.737216949,0.409997406,9.795330505
23.64460508,-0.759819946,0.403860168,9.779014435
23.65457708,-0.756526794,0.401465149,9.800569611
23.66454908,-0.730031891,0.417032776,9.803713074
23.67452208,-0.748742981,0.429606628,9.791737976
23.68449408,-0.762364655,0.423768768,9.787397003
23.69446608,-0.767005005,0.427510986,9.763446808
23.70443863,-0.759670258,0.443377991,9.773176575
23.71441063,-0.759071503,0.44697052,9.783804474
23.72438263,-0.734672241,0.456700287,9.779313812
23.73435562,-0.794098663,0.450563049,9.773026886
23.74432762,-0.777034149,0.458795929,9.765692139
23.75429962,-0.748293915,0.454754333,9.748777313
23.76427263,-0.757424927,0.465082855,9.772278442
23.77424463,-0.768052826,0.46568161,9.749525757
23.78421663,-0.754431152,0.490529938,9.757010193
23.79418963,-0.773291931,0.481249237,9.739945679
23.80416163,-0.788859558,0.473465424,9.742640076
23.81413363,-0.761616211,0.483793945,9.746681671
23.82410663,-0.773591309,0.479602661,9.746681671
23.83407863,-0.743204498,0.475860443,9.740394745
23.84405063,-0.778980103,0.481997681,9.737101593
23.85402362,-0.76056839,0.475561066,9.752968597
23.86399562,-0.78751236,0.472866669,9.72452774
23.87396762,-0.755029907,0.482746124,9.736652527
23.88394063,-0.755329285,0.466579742,9.74683136
23.89391263,-0.770896912,0.483644257,9.716294861
23.90388463,-0.793649597,0.486338654,9.700427856
23.91385763,-0.789608002,0.498164063,9.708361359
23.92382963,-0.744402008,0.495918732,9.738149414
23.93380163,-0.727187805,0.499211884,9.73515564
23.94377463,-0.749491425,0.499810638,9.732461243
23.95374663,-0.775537262,0.50669632,9.712253265
23.96371863,-0.787212982,0.507893829,9.713301086
23.97369162,-0.736917572,0.522413635,9.720635834
23.98366362,-0.770148468,0.535137177,9.718240814
23.99363562,-0.728535004,0.544866943,9.723629608
24.00360863,-0.773142242,0.539029083,9.72812027
24.01358063,-0.738713837,0.528251495,9.736203461
24.02355263,-0.73482193,0.551902313,9.736802216
24.03352563,-0.763711853,0.551752625,9.735005951
24.04349763,-0.744851074,0.574804688,9.713001709
24.05346963,-0.751736755,0.552650757,9.720037079
24.06344263,-0.689316559,0.570912781,9.747879181
24.07341463,-0.757125549,0.567919006,9.756710815
24.08338663,-0.771495667,0.573607178,9.720186768
24.09335962,-0.757125549,0.571661224,9.732910309
24.10333162,-0.740959167,0.573008423,9.744136963
24.11330362,-0.723295898,0.566422119,9.76314743
24.12327663,-0.731379089,0.579295349,9.749825134
24.13324863,-0.717757416,0.563428345,9.752070465
24.14322063,-0.75473053,0.55818924,9.770332489
24.15319363,-0.762514343,0.551602936,9.771529999
